STUDYID,DOMAIN,USUBJID,AESEQ,AESPID,AETERM,AELLT,AELLTCD,AEDECOD,AEPTCD,AEHLT,AEHLTCD,AEHLGT,AEHLGTCD,AEBODSYS,AEBDSYCD,AESOC,AESOCCD,AESEV,AESER,AEACN,AEREL,AEOUT,AESHOSP,AEREASND,AESTDTC,AEENDTC,AESTDY
CDISC-TEST,AE,CDISC-TEST-001,1,1,UPSET STOMACH,Upset stomach,10046318,Abdominal discomfort,10000059,Gastrointestinal signs and symptoms NEC,10027678,Gastrointestinal signs and symptoms,10018012,Gastrointestinal disorders,10017947,Gastrointestinal disorders,10017947,MILD,N,,,RECOVERED/RESOLVED,N,,2019-05-21,,70
CDISC-TEST,AE,CDISC-TEST-001,2,3,UPSET STOMACH,Upset stomach,10046318,Abdominal discomfort,10000059,Gastrointestinal signs and symptoms NEC,10027678,Gastrointestinal signs and symptoms,10018012,Gastrointestinal disorders,10017947,Gastrointestinal disorders,10017947,MILD,N,,,RECOVERED/RESOLVED,N,,2019-06-15,,95
CDISC-TEST,AE,CDISC-TEST-001,3,12,BACK PAIN,Back pain,10003988,Back pain,10003988,Musculoskeletal and connective tissue pain and discomfort,10068757,Musculoskeletal and connective tissue disorders NEC,10028393,Musculoskeletal and connective tissue disorders,10028395,Musculoskeletal and connective tissue disorders,10028395,MILD,N,,,RECOVERED/RESOLVED,N,,2019-04-27,,46
CDISC-TEST,AE,CDISC-TEST-001,4,15,BACK PAIN,Back pain,10003988,Back pain,10003988,Musculoskeletal and connective tissue pain and discomfort,10068757,Musculoskeletal and connective tissue disorders NEC,10028393,Musculoskeletal and connective tissue disorders,10028395,Musculoskeletal and connective tissue disorders,10028395,MILD,N,,,RECOVERED/RESOLVED,N,,2019-04-29,,48
CDISC-TEST,AE,CDISC-TEST-001,5,6,DIARRHOEA,Diarrhoea,10012735,Diarrhoea,10012735,Diarrhoea (excl infective),10012736,Gastrointestinal motility and defaecation conditions,10017977,Gastrointestinal disorders,10017947,Gastrointestinal disorders,10017947,MILD,N,,,RECOVERED/RESOLVED,N,,2019-08-11,,152
CDISC-TEST,AE,CDISC-TEST-001,6,14,HEADACHE,Headache,10019211,Headache,10019211,Headaches NEC,10019233,Headaches,10019231,Nervous system disorders,10029205,Nervous system disorders,10029205,MILD,N,,,RECOVERED/RESOLVED,N,,2019-03-16,,4
CDISC-TEST,AE,CDISC-TEST-001,7,9,HYPOGLYCAEMIA,Hypoglycaemia,10020993,Hypoglycaemia,10020993,Hypoglycaemic conditions NEC,10021001,Glucose metabolism disorders (incl diabetes mellitus),10018424,Metabolism and nutrition disorders,10027433,Metabolism and nutrition disorders,10027433,MILD,N,,,RECOVERED/RESOLVED,N,,2019-05-06,,55
CDISC-TEST,AE,CDISC-TEST-001,8,10,HYPOGLYCAEMIA,Hypoglycaemia,10020993,Hypoglycaemia,10020993,Hypoglycaemic conditions NEC,10021001,Glucose metabolism disorders (incl diabetes mellitus),10018424,Metabolism and nutrition disorders,10027433,Metabolism and nutrition disorders,10027433,MILD,N,,,RECOVERED/RESOLVED,N,,2019-05-10,,59
CDISC-TEST,AE,CDISC-TEST-001,9,13,HYPOGLYCAEMIA,Hypoglycaemia,10020993,Hypoglycaemia,10020993,Hypoglycaemic conditions NEC,10021001,Glucose metabolism disorders (incl diabetes mellitus),10018424,Metabolism and nutrition disorders,10027433,Metabolism and nutrition disorders,10027433,MILD,N,,,RECOVERED/RESOLVED,N,,2019-05-22,,71
CDISC-TEST,AE,CDISC-TEST-001,10,2,HYPOGLYCAEMIA,Hypoglycaemia,10020993,Hypoglycaemia,10020993,Hypoglycaemic conditions NEC,10021001,Glucose metabolism disorders (incl diabetes mellitus),10018424,Metabolism and nutrition disorders,10027433,Metabolism and nutrition disorders,10027433,MILD,N,,,RECOVERED/RESOLVED,N,,2019-09-05,,177
CDISC-TEST,AE,CDISC-TEST-001,11,7,HYPOGLYCAEMIA,Hypoglycaemia,10020993,Hypoglycaemia,10020993,Hypoglycaemic conditions NEC,10021001,Glucose metabolism disorders (incl diabetes mellitus),10018424,Metabolism and nutrition disorders,10027433,Metabolism and nutrition disorders,10027433,MODERATE,N,,,RECOVERED/RESOLVED,N,,2019-09-08,,180
CDISC-TEST,AE,CDISC-TEST-001,12,4,HYPOGLYCAEMIC UNCONSCIOUSNESS,Hypoglycaemic unconsciousness,10065981,Hypoglycaemic unconsciousness,10065981,Disturbances in consciousness NEC,10013509,Neurological disorders NEC,10029305,Nervous system disorders,10029205,Nervous system disorders,10029205,MILD,N,,,RECOVERED/RESOLVED,N,,2019-05-01,,50
CDISC-TEST,AE,CDISC-TEST-001,13,8,HYPOGLYCAEMIC UNCONSCIOUSNESS,Hypoglycaemic unconsciousness,10065981,Hypoglycaemic unconsciousness,10065981,Disturbances in consciousness NEC,10013509,Neurological disorders NEC,10029305,Nervous system disorders,10029205,Nervous system disorders,10029205,MILD,N,,,RECOVERED/RESOLVED,N,,2019-07-23,,133
CDISC-TEST,AE,CDISC-TEST-001,14,11,NASOPHARYNGITIS,Nasopharyngitis,10028810,Nasopharyngitis,10028810,Upper respiratory tract infections,10046309,Infections - pathogen unspecified,10021879,Infections and infestations,10021881,Infections and infestations,10021881,MILD,N,,,RECOVERED/RESOLVED,N,,2019-04-08,,27
CDISC-TEST,AE,CDISC-TEST-001,15,5,NASOPHARYNGITIS,Nasopharyngitis,10028810,Nasopharyngitis,10028810,Upper respiratory tract infections,10046309,Infections - pathogen unspecified,10021879,Infections and infestations,10021881,Infections and infestations,10021881,MILD,N,,,RECOVERED/RESOLVED,N,,2019-05-28,,77
CDISC-TEST,AE,CDISC-TEST-002,16,30,UPSET STOMACH,Upset stomach,10046318,Abdominal discomfort,10000059,Gastrointestinal signs and symptoms NEC,10027678,Gastrointestinal signs and symptoms,10018012,Gastrointestinal disorders,10017947,Gastrointestinal disorders,10017947,MILD,N,,,RECOVERED/RESOLVED,N,,2019-05-31,,121
CDISC-TEST,AE,CDISC-TEST-002,17,26,BACK PAIN,Back pain,10003988,Back pain,10003988,Musculoskeletal and connective tissue pain and discomfort,10068757,Musculoskeletal and connective tissue disorders NEC,10028393,Musculoskeletal and connective tissue disorders,10028395,Musculoskeletal and connective tissue disorders,10028395,MILD,N,,,RECOVERED/RESOLVED,N,,2019-02-01,,2
CDISC-TEST,AE,CDISC-TEST-002,18,18,BACK PAIN,Back pain,10003988,Back pain,10003988,Musculoskeletal and connective tissue pain and discomfort,10068757,Musculoskeletal and connective tissue disorders NEC,10028393,Musculoskeletal and connective tissue disorders,10028395,Musculoskeletal and connective tissue disorders,10028395,MILD,N,,,RECOVERED/RESOLVED,N,,2019-02-28,,29
CDISC-TEST,AE,CDISC-TEST-002,19,17,BRONCHITIS,Bronchitis,10006451,Bronchitis,10006451,Lower respiratory tract and lung infections,10025101,Infections - pathogen unspecified,10021879,Infections and infestations,10021881,Infections and infestations,10021881,MILD,N,,,RECOVERED/RESOLVED,N,,2019-02-19,,20
CDISC-TEST,AE,CDISC-TEST-002,20,22,DIARRHOEA,Diarrhoea,10012735,Diarrhoea,10012735,Diarrhoea (excl infective),10012736,Gastrointestinal motility and defaecation conditions,10017977,Gastrointestinal disorders,10017947,Gastrointestinal disorders,10017947,MILD,N,,,RECOVERED/RESOLVED,N,,2019-04-22,,82
CDISC-TEST,AE,CDISC-TEST-002,21,20,HEADACHE,Headache,10019211,Headache,10019211,Headaches NEC,10019233,Headaches,10019231,Nervous system disorders,10029205,Nervous system disorders,10029205,MILD,N,,,RECOVERED/RESOLVED,N,,2019-05-14,,104
CDISC-TEST,AE,CDISC-TEST-002,22,19,HEADACHE,Headache,10019211,Headache,10019211,Headaches NEC,10019233,Headaches,10019231,Nervous system disorders,10029205,Nervous system disorders,10029205,MILD,N,,,RECOVERED/RESOLVED,N,,2019-06-13,,134
CDISC-TEST,AE,CDISC-TEST-002,23,27,HEADACHE,Headache,10019211,Headache,10019211,Headaches NEC,10019233,Headaches,10019231,Nervous system disorders,10029205,Nervous system disorders,10029205,MILD,N,,,RECOVERED/RESOLVED,N,,2019-06-23,,144
CDISC-TEST,AE,CDISC-TEST-002,24,21,HEADACHE,Headache,10019211,Headache,10019211,Headaches NEC,10019233,Headaches,10019231,Nervous system disorders,10029205,Nervous system disorders,10029205,MILD,N,,,RECOVERED/RESOLVED,N,,2019-07-12,,163
CDISC-TEST,AE,CDISC-TEST-002,25,24,HYPERTENSION,Hypertension,10020772,Hypertension,10020772,Vascular hypertensive disorders NEC,10020774,Vascular hypertensive disorders,10057166,Vascular disorders,10047065,Vascular disorders,10047065,MODERATE,N,,,RECOVERED/RESOLVED,N,,2019-05-17,,107
CDISC-TEST,AE,CDISC-TEST-002,26,16,HYPERTENSION,Hypertension,10020772,Hypertension,10020772,Vascular hypertensive disorders NEC,10020774,Vascular hypertensive disorders,10057166,Vascular disorders,10047065,Vascular disorders,10047065,MILD,N,,,RECOVERED/RESOLVED,N,,2019-06-12,,133
CDISC-TEST,AE,CDISC-TEST-002,27,29,HYPOGLYCAEMIA,Hypoglycaemia,10020993,Hypoglycaemia,10020993,Hypoglycaemic conditions NEC,10021001,Glucose metabolism disorders (incl diabetes mellitus),10018424,Metabolism and nutrition disorders,10027433,Metabolism and nutrition disorders,10027433,MILD,N,,,RECOVERED/RESOLVED,N,,2019-03-14,,43
CDISC-TEST,AE,CDISC-TEST-002,28,31,HYPOGLYCAEMIA,Hypoglycaemia,10020993,Hypoglycaemia,10020993,Hypoglycaemic conditions NEC,10021001,Glucose metabolism disorders (incl diabetes mellitus),10018424,Metabolism and nutrition disorders,10027433,Metabolism and nutrition disorders,10027433,MILD,N,,,RECOVERED/RESOLVED,N,,2019-03-28,,57
CDISC-TEST,AE,CDISC-TEST-002,29,23,HYPOGLYCAEMIA,Hypoglycaemia,10020993,Hypoglycaemia,10020993,Hypoglycaemic conditions NEC,10021001,Glucose metabolism disorders (incl diabetes mellitus),10018424,Metabolism and nutrition disorders,10027433,Metabolism and nutrition disorders,10027433,MILD,N,,,RECOVERED/RESOLVED,N,,2019-04-05,,65
CDISC-TEST,AE,CDISC-TEST-002,30,32,HYPOGLYCAEMIA,Hypoglycaemia,10020993,Hypoglycaemia,10020993,Hypoglycaemic conditions NEC,10021001,Glucose metabolism disorders (incl diabetes mellitus),10018424,Metabolism and nutrition disorders,10027433,Metabolism and nutrition disorders,10027433,MILD,N,,,RECOVERED/RESOLVED,N,,2019-04-09,,69
CDISC-TEST,AE,CDISC-TEST-002,31,25,HYPOGLYCAEMIA,Hypoglycaemia,10020993,Hypoglycaemia,10020993,Hypoglycaemic conditions NEC,10021001,Glucose metabolism disorders (incl diabetes mellitus),10018424,Metabolism and nutrition disorders,10027433,Metabolism and nutrition disorders,10027433,MODERATE,N,,,RECOVERED/RESOLVED,N,,2019-04-23,,83
CDISC-TEST,AE,CDISC-TEST-002,32,28,HYPOGLYCAEMIA,Hypoglycaemia,10020993,Hypoglycaemia,10020993,Hypoglycaemic conditions NEC,10021001,Glucose metabolism disorders (incl diabetes mellitus),10018424,Metabolism and nutrition disorders,10027433,Metabolism and nutrition disorders,10027433,MILD,N,,,RECOVERED/RESOLVED,N,,2019-05-01,,91
CDISC-TEST,AE,CDISC-TEST-003,33,39,UPSET STOMACH,Upset stomach,10046318,Abdominal discomfort,10000059,Gastrointestinal signs and symptoms NEC,10027678,Gastrointestinal signs and symptoms,10018012,Gastrointestinal disorders,10017947,Gastrointestinal disorders,10017947,MILD,N,,,RECOVERED/RESOLVED,N,,2019-05-30,,124
CDISC-TEST,AE,CDISC-TEST-003,34,37,UPSET STOMACH,Upset stomach,10046318,Abdominal discomfort,10000059,Gastrointestinal signs and symptoms NEC,10027678,Gastrointestinal signs and symptoms,10018012,Gastrointestinal disorders,10017947,Gastrointestinal disorders,10017947,MILD,N,,,RECOVERED/RESOLVED,N,,2019-06-17,,142
CDISC-TEST,AE,CDISC-TEST-003,35,43,DIARRHOEA,Diarrhoea,10012735,Diarrhoea,10012735,Diarrhoea (excl infective),10012736,Gastrointestinal motility and defaecation conditions,10017977,Gastrointestinal disorders,10017947,Gastrointestinal disorders,10017947,MILD,N,,,RECOVERED/RESOLVED,N,,2019-02-02,,7
CDISC-TEST,AE,CDISC-TEST-003,36,34,DIARRHOEA,Diarrhoea,10012735,Diarrhoea,10012735,Diarrhoea (excl infective),10012736,Gastrointestinal motility and defaecation conditions,10017977,Gastrointestinal disorders,10017947,Gastrointestinal disorders,10017947,MILD,N,,,RECOVERED/RESOLVED,N,,2019-02-20,,25
CDISC-TEST,AE,CDISC-TEST-003,37,38,HEADACHE,Headache,10019211,Headache,10019211,Headaches NEC,10019233,Headaches,10019231,Nervous system disorders,10029205,Nervous system disorders,10029205,MILD,N,,,RECOVERED/RESOLVED,N,,2019-05-14,,108
CDISC-TEST,AE,CDISC-TEST-003,38,35,HEADACHE,Headache,10019211,Headache,10019211,Headaches NEC,10019233,Headaches,10019231,Nervous system disorders,10029205,Nervous system disorders,10029205,MILD,N,,,RECOVERED/RESOLVED,N,,2019-06-08,,133
CDISC-TEST,AE,CDISC-TEST-003,39,36,HEADACHE,Headache,10019211,Headache,10019211,Headaches NEC,10019233,Headaches,10019231,Nervous system disorders,10029205,Nervous system disorders,10029205,MILD,N,,,RECOVERED/RESOLVED,N,,2019-06-17,,142
CDISC-TEST,AE,CDISC-TEST-003,40,45,HYPERTENSION,Hypertension,10020772,Hypertension,10020772,Vascular hypertensive disorders NEC,10020774,Vascular hypertensive disorders,10057166,Vascular disorders,10047065,Vascular disorders,10047065,MILD,N,,,RECOVERED/RESOLVED,N,,2019-02-14,,19
CDISC-TEST,AE,CDISC-TEST-003,41,33,HYPERTENSION,Hypertension,10020772,Hypertension,10020772,Vascular hypertensive disorders NEC,10020774,Vascular hypertensive disorders,10057166,Vascular disorders,10047065,Vascular disorders,10047065,MILD,N,,,RECOVERED/RESOLVED,N,,2019-05-06,,100
CDISC-TEST,AE,CDISC-TEST-003,42,44,HYPERTENSION,Hypertension,10020772,Hypertension,10020772,Vascular hypertensive disorders NEC,10020774,Vascular hypertensive disorders,10057166,Vascular disorders,10047065,Vascular disorders,10047065,MILD,N,,,RECOVERED/RESOLVED,N,,2019-05-19,,113
CDISC-TEST,AE,CDISC-TEST-003,43,42,HYPERTENSION,Hypertension,10020772,Hypertension,10020772,Vascular hypertensive disorders NEC,10020774,Vascular hypertensive disorders,10057166,Vascular disorders,10047065,Vascular disorders,10047065,MILD,N,,,RECOVERED/RESOLVED,N,,2019-07-18,,173
CDISC-TEST,AE,CDISC-TEST-003,44,40,HYPOGLYCAEMIA,Hypoglycaemia,10020993,Hypoglycaemia,10020993,Hypoglycaemic conditions NEC,10021001,Glucose metabolism disorders (incl diabetes mellitus),10018424,Metabolism and nutrition disorders,10027433,Metabolism and nutrition disorders,10027433,MILD,N,,,RECOVERED/RESOLVED,N,,2019-06-28,,153
CDISC-TEST,AE,CDISC-TEST-003,45,41,NASOPHARYNGITIS,Nasopharyngitis,10028810,Nasopharyngitis,10028810,Upper respiratory tract infections,10046309,Infections - pathogen unspecified,10021879,Infections and infestations,10021881,Infections and infestations,10021881,MILD,N,,,RECOVERED/RESOLVED,N,,2019-05-01,,95
CDISC-TEST,AE,CDISC-TEST-004,46,48,UPSET STOMACH,Upset stomach,10046318,Abdominal discomfort,10000059,Gastrointestinal signs and symptoms NEC,10027678,Gastrointestinal signs and symptoms,10018012,Gastrointestinal disorders,10017947,Gastrointestinal disorders,10017947,MILD,N,,,RECOVERED/RESOLVED,N,,2019-06-20,,124
CDISC-TEST,AE,CDISC-TEST-004,47,57,BACK PAIN,Back pain,10003988,Back pain,10003988,Musculoskeletal and connective tissue pain and discomfort,10068757,Musculoskeletal and connective tissue disorders NEC,10028393,Musculoskeletal and connective tissue disorders,10028395,Musculoskeletal and connective tissue disorders,10028395,MILD,N,,,RECOVERED/RESOLVED,N,,2019-04-18,,61
CDISC-TEST,AE,CDISC-TEST-004,48,62,BACK PAIN,Back pain,10003988,Back pain,10003988,Musculoskeletal and connective tissue pain and discomfort,10068757,Musculoskeletal and connective tissue disorders NEC,10028393,Musculoskeletal and connective tissue disorders,10028395,Musculoskeletal and connective tissue disorders,10028395,MILD,N,,,RECOVERED/RESOLVED,N,,2019-05-28,,101
CDISC-TEST,AE,CDISC-TEST-004,49,53,BACK PAIN,Back pain,10003988,Back pain,10003988,Musculoskeletal and connective tissue pain and discomfort,10068757,Musculoskeletal and connective tissue disorders NEC,10028393,Musculoskeletal and connective tissue disorders,10028395,Musculoskeletal and connective tissue disorders,10028395,MILD,N,,,RECOVERED/RESOLVED,N,,2019-06-03,,107
CDISC-TEST,AE,CDISC-TEST-004,50,50,BACK PAIN,Back pain,10003988,Back pain,10003988,Musculoskeletal and connective tissue pain and discomfort,10068757,Musculoskeletal and connective tissue disorders NEC,10028393,Musculoskeletal and connective tissue disorders,10028395,Musculoskeletal and connective tissue disorders,10028395,MILD,N,,,RECOVERED/RESOLVED,N,,2019-08-11,,176
CDISC-TEST,AE,CDISC-TEST-004,51,64,BRONCHITIS,Bronchitis,10006451,Bronchitis,10006451,Lower respiratory tract and lung infections,10025101,Infections - pathogen unspecified,10021879,Infections and infestations,10021881,Infections and infestations,10021881,MILD,N,,,RECOVERED/RESOLVED,N,,2019-06-17,,121
CDISC-TEST,AE,CDISC-TEST-004,52,51,BRONCHITIS,Bronchitis,10006451,Bronchitis,10006451,Lower respiratory tract and lung infections,10025101,Infections - pathogen unspecified,10021879,Infections and infestations,10021881,Infections and infestations,10021881,MILD,N,,,RECOVERED/RESOLVED,N,,2019-07-06,,140
CDISC-TEST,AE,CDISC-TEST-004,53,49,DIARRHOEA,Diarrhoea,10012735,Diarrhoea,10012735,Diarrhoea (excl infective),10012736,Gastrointestinal motility and defaecation conditions,10017977,Gastrointestinal disorders,10017947,Gastrointestinal disorders,10017947,MILD,N,,,RECOVERED/RESOLVED,N,,2019-07-23,,157
CDISC-TEST,AE,CDISC-TEST-004,54,55,HYPERTENSION,Hypertension,10020772,Hypertension,10020772,Vascular hypertensive disorders NEC,10020774,Vascular hypertensive disorders,10057166,Vascular disorders,10047065,Vascular disorders,10047065,MILD,N,,,RECOVERED/RESOLVED,N,,2019-02-20,,4
CDISC-TEST,AE,CDISC-TEST-004,55,61,HYPERTENSION,Hypertension,10020772,Hypertension,10020772,Vascular hypertensive disorders NEC,10020774,Vascular hypertensive disorders,10057166,Vascular disorders,10047065,Vascular disorders,10047065,MILD,N,,,RECOVERED/RESOLVED,N,,2019-02-27,,11
CDISC-TEST,AE,CDISC-TEST-004,56,59,HYPERTENSION,Hypertension,10020772,Hypertension,10020772,Vascular hypertensive disorders NEC,10020774,Vascular hypertensive disorders,10057166,Vascular disorders,10047065,Vascular disorders,10047065,MILD,N,,,RECOVERED/RESOLVED,N,,2019-05-29,,102
CDISC-TEST,AE,CDISC-TEST-004,57,46,HYPERTENSION,Hypertension,10020772,Hypertension,10020772,Vascular hypertensive disorders NEC,10020774,Vascular hypertensive disorders,10057166,Vascular disorders,10047065,Vascular disorders,10047065,MILD,N,,,RECOVERED/RESOLVED,N,,2019-08-07,,172
CDISC-TEST,AE,CDISC-TEST-004,58,52,HYPOGLYCAEMIA,Hypoglycaemia,10020993,Hypoglycaemia,10020993,Hypoglycaemic conditions NEC,10021001,Glucose metabolism disorders (incl diabetes mellitus),10018424,Metabolism and nutrition disorders,10027433,Metabolism and nutrition disorders,10027433,MILD,N,,,RECOVERED/RESOLVED,N,,2019-02-27,,11
CDISC-TEST,AE,CDISC-TEST-004,59,56,HYPOGLYCAEMIA,Hypoglycaemia,10020993,Hypoglycaemia,10020993,Hypoglycaemic conditions NEC,10021001,Glucose metabolism disorders (incl diabetes mellitus),10018424,Metabolism and nutrition disorders,10027433,Metabolism and nutrition disorders,10027433,MILD,N,,,RECOVERED/RESOLVED,N,,2019-04-15,,58
CDISC-TEST,AE,CDISC-TEST-004,60,54,HYPOGLYCAEMIA,Hypoglycaemia,10020993,Hypoglycaemia,10020993,Hypoglycaemic conditions NEC,10021001,Glucose metabolism disorders (incl diabetes mellitus),10018424,Metabolism and nutrition disorders,10027433,Metabolism and nutrition disorders,10027433,MILD,N,,,RECOVERED/RESOLVED,N,,2019-04-26,,69
CDISC-TEST,AE,CDISC-TEST-004,61,63,NASOPHARYNGITIS,Nasopharyngitis,10028810,Nasopharyngitis,10028810,Upper respiratory tract infections,10046309,Infections - pathogen unspecified,10021879,Infections and infestations,10021881,Infections and infestations,10021881,MILD,N,,,RECOVERED/RESOLVED,N,,2019-03-30,,42
CDISC-TEST,AE,CDISC-TEST-004,62,47,NASOPHARYNGITIS,Nasopharyngitis,10028810,Nasopharyngitis,10028810,Upper respiratory tract infections,10046309,Infections - pathogen unspecified,10021879,Infections and infestations,10021881,Infections and infestations,10021881,MILD,N,,,RECOVERED/RESOLVED,N,,2019-05-29,,102
CDISC-TEST,AE,CDISC-TEST-004,63,60,NASOPHARYNGITIS,Nasopharyngitis,10028810,Nasopharyngitis,10028810,Upper respiratory tract infections,10046309,Infections - pathogen unspecified,10021879,Infections and infestations,10021881,Infections and infestations,10021881,MILD,N,,,RECOVERED/RESOLVED,N,,2019-06-25,,129
CDISC-TEST,AE,CDISC-TEST-004,64,58,NASOPHARYNGITIS,Nasopharyngitis,10028810,Nasopharyngitis,10028810,Upper respiratory tract infections,10046309,Infections - pathogen unspecified,10021879,Infections and infestations,10021881,Infections and infestations,10021881,MILD,N,,,RECOVERED/RESOLVED,N,,2019-08-05,,170
CDISC-TEST,AE,CDISC-TEST-004,65,65,PNEUMONIA,Pneumonia,10035664,Pneumonia,10035664,Lower respiratory tract and lung infections,10025101,Infections - pathogen unspecified,10021879,Infections and infestations,10021881,Infections and infestations,10021881,MODERATE,N,,,RECOVERED/RESOLVED,Y,,2019-07-31,,165
CDISC-TEST,AE,CDISC-TEST-005,66,68,UPSET STOMACH,Upset stomach,10046318,Abdominal discomfort,10000059,Gastrointestinal signs and symptoms NEC,10027678,Gastrointestinal signs and symptoms,10018012,Gastrointestinal disorders,10017947,Gastrointestinal disorders,10017947,MILD,N,,,RECOVERED/RESOLVED,N,,2019-05-15,,74
CDISC-TEST,AE,CDISC-TEST-005,67,80,ACUTE CORONARY SYNDROME,Acute coronary syndrome,10051592,Acute coronary syndrome,10051592,Ischaemic coronary artery disorders,10011085,Coronary artery disorders,10011082,Cardiac disorders,10007541,Cardiac disorders,10007541,SEVERE,Y,,,RECOVERING/RESOLVING,Y,,2019-06-22,,112
CDISC-TEST,AE,CDISC-TEST-005,68,79,BRONCHITIS,Bronchitis,10006451,Bronchitis,10006451,Lower respiratory tract and lung infections,10025101,Infections - pathogen unspecified,10021879,Infections and infestations,10021881,Infections and infestations,10021881,MILD,N,,,RECOVERED/RESOLVED,N,,2019-08-22,,173
CDISC-TEST,AE,CDISC-TEST-005,69,82,DIARRHOEA,Diarrhoea,10012735,Diarrhoea,10012735,Diarrhoea (excl infective),10012736,Gastrointestinal motility and defaecation conditions,10017977,Gastrointestinal disorders,10017947,Gastrointestinal disorders,10017947,MILD,N,,,RECOVERED/RESOLVED,N,,2019-07-09,,129
CDISC-TEST,AE,CDISC-TEST-005,70,73,HEADACHE,Headache,10019211,Headache,10019211,Headaches NEC,10019233,Headaches,10019231,Nervous system disorders,10029205,Nervous system disorders,10029205,MILD,N,,,RECOVERED/RESOLVED,N,,2019-03-06,,4
CDISC-TEST,AE,CDISC-TEST-005,71,78,HEADACHE,Headache,10019211,Headache,10019211,Headaches NEC,10019233,Headaches,10019231,Nervous system disorders,10029205,Nervous system disorders,10029205,MILD,N,,,RECOVERED/RESOLVED,N,,2019-07-11,,131
CDISC-TEST,AE,CDISC-TEST-005,72,71,HEADACHE,Headache,10019211,Headache,10019211,Headaches NEC,10019233,Headaches,10019231,Nervous system disorders,10029205,Nervous system disorders,10029205,MILD,N,,,RECOVERED/RESOLVED,N,,2019-07-19,,139
CDISC-TEST,AE,CDISC-TEST-005,73,77,HEADACHE,Headache,10019211,Headache,10019211,Headaches NEC,10019233,Headaches,10019231,Nervous system disorders,10029205,Nervous system disorders,10029205,MILD,N,,,RECOVERED/RESOLVED,N,,2019-07-20,,140
CDISC-TEST,AE,CDISC-TEST-005,74,67,HYPERTENSION,Hypertension,10020772,Hypertension,10020772,Vascular hypertensive disorders NEC,10020774,Vascular hypertensive disorders,10057166,Vascular disorders,10047065,Vascular disorders,10047065,MILD,N,,,RECOVERED/RESOLVED,N,,2019-04-05,,34
CDISC-TEST,AE,CDISC-TEST-005,75,69,HYPERTENSION,Hypertension,10020772,Hypertension,10020772,Vascular hypertensive disorders NEC,10020774,Vascular hypertensive disorders,10057166,Vascular disorders,10047065,Vascular disorders,10047065,MILD,N,,,RECOVERED/RESOLVED,N,,2019-05-01,,60
CDISC-TEST,AE,CDISC-TEST-005,76,76,HYPERTENSION,Hypertension,10020772,Hypertension,10020772,Vascular hypertensive disorders NEC,10020774,Vascular hypertensive disorders,10057166,Vascular disorders,10047065,Vascular disorders,10047065,MILD,N,,,RECOVERED/RESOLVED,N,,2019-05-26,,85
CDISC-TEST,AE,CDISC-TEST-005,77,66,HYPERTENSION,Hypertension,10020772,Hypertension,10020772,Vascular hypertensive disorders NEC,10020774,Vascular hypertensive disorders,10057166,Vascular disorders,10047065,Vascular disorders,10047065,MILD,N,,,RECOVERED/RESOLVED,N,,2019-08-25,,176
CDISC-TEST,AE,CDISC-TEST-005,78,72,HYPOGLYCAEMIA,Hypoglycaemia,10020993,Hypoglycaemia,10020993,Hypoglycaemic conditions NEC,10021001,Glucose metabolism disorders (incl diabetes mellitus),10018424,Metabolism and nutrition disorders,10027433,Metabolism and nutrition disorders,10027433,MILD,N,,,RECOVERED/RESOLVED,N,,2019-07-26,,146
CDISC-TEST,AE,CDISC-TEST-005,79,74,PNEUMONIA,Pneumonia,10035664,Pneumonia,10035664,Lower respiratory tract and lung infections,10025101,Infections - pathogen unspecified,10021879,Infections and infestations,10021881,Infections and infestations,10021881,MODERATE,N,,,RECOVERED/RESOLVED,Y,,2019-04-27,,56
CDISC-TEST,AE,CDISC-TEST-005,80,75,PNEUMONIA,Pneumonia,10035664,Pneumonia,10035664,Lower respiratory tract and lung infections,10025101,Infections - pathogen unspecified,10021879,Infections and infestations,10021881,Infections and infestations,10021881,MILD,N,,,RECOVERED/RESOLVED,N,,2019-05-16,,75
CDISC-TEST,AE,CDISC-TEST-005,81,70,PNEUMONIA,Pneumonia,10035664,Pneumonia,10035664,Lower respiratory tract and lung infections,10025101,Infections - pathogen unspecified,10021879,Infections and infestations,10021881,Infections and infestations,10021881,MILD,N,,,RECOVERED/RESOLVED,N,,2019-06-14,,104
CDISC-TEST,AE,CDISC-TEST-005,82,81,URINARY TRACT INFECTION,Urinary tract infection,10046571,Urinary tract infection,10046571,Urinary tract infections,10046577,Infections - pathogen unspecified,10021879,Infections and infestations,10021881,Infections and infestations,10021881,MILD,N,,,RECOVERED/RESOLVED,N,,2019-07-13,,133
CDISC-TEST,AE,CDISC-TEST-006,83,88,UPSET STOMACH,Upset stomach,10046318,Abdominal discomfort,10000059,Gastrointestinal signs and symptoms NEC,10027678,Gastrointestinal signs and symptoms,10018012,Gastrointestinal disorders,10017947,Gastrointestinal disorders,10017947,MILD,N,,,RECOVERED/RESOLVED,N,,2019-03-15,,25
CDISC-TEST,AE,CDISC-TEST-006,84,93,UPSET STOMACH,Upset stomach,10046318,Abdominal discomfort,10000059,Gastrointestinal signs and symptoms NEC,10027678,Gastrointestinal signs and symptoms,10018012,Gastrointestinal disorders,10017947,Gastrointestinal disorders,10017947,MILD,N,,,RECOVERED/RESOLVED,N,,2019-06-14,,116
CDISC-TEST,AE,CDISC-TEST-006,85,86,BRONCHITIS,Bronchitis,10006451,Bronchitis,10006451,Lower respiratory tract and lung infections,10025101,Infections - pathogen unspecified,10021879,Infections and infestations,10021881,Infections and infestations,10021881,MILD,N,,,RECOVERED/RESOLVED,N,,2019-07-31,,163
CDISC-TEST,AE,CDISC-TEST-006,86,90,DIARRHOEA,Diarrhoea,10012735,Diarrhoea,10012735,Diarrhoea (excl infective),10012736,Gastrointestinal motility and defaecation conditions,10017977,Gastrointestinal disorders,10017947,Gastrointestinal disorders,10017947,MILD,N,,,RECOVERED/RESOLVED,N,,2019-03-10,,20
CDISC-TEST,AE,CDISC-TEST-006,87,99,HEADACHE,Headache,10019211,Headache,10019211,Headaches NEC,10019233,Headaches,10019231,Nervous system disorders,10029205,Nervous system disorders,10029205,MILD,N,,,RECOVERED/RESOLVED,N,,2019-04-26,,67
CDISC-TEST,AE,CDISC-TEST-006,88,100,HEADACHE,Headache,10019211,Headache,10019211,Headaches NEC,10019233,Headaches,10019231,Nervous system disorders,10029205,Nervous system disorders,10029205,MILD,N,,,RECOVERED/RESOLVED,N,,2019-06-29,,131
CDISC-TEST,AE,CDISC-TEST-006,89,85,HYPERTENSION,Hypertension,10020772,Hypertension,10020772,Vascular hypertensive disorders NEC,10020774,Vascular hypertensive disorders,10057166,Vascular disorders,10047065,Vascular disorders,10047065,MILD,N,,,RECOVERED/RESOLVED,N,,2019-04-18,,59
CDISC-TEST,AE,CDISC-TEST-006,90,95,HYPERTENSION,Hypertension,10020772,Hypertension,10020772,Vascular hypertensive disorders NEC,10020774,Vascular hypertensive disorders,10057166,Vascular disorders,10047065,Vascular disorders,10047065,MILD,N,,,RECOVERED/RESOLVED,N,,2019-04-27,,68
CDISC-TEST,AE,CDISC-TEST-006,91,92,HYPOGLYCAEMIA,Hypoglycaemia,10020993,Hypoglycaemia,10020993,Hypoglycaemic conditions NEC,10021001,Glucose metabolism disorders (incl diabetes mellitus),10018424,Metabolism and nutrition disorders,10027433,Metabolism and nutrition disorders,10027433,MILD,N,,,RECOVERED/RESOLVED,N,,2019-02-20,,2
CDISC-TEST,AE,CDISC-TEST-006,92,91,HYPOGLYCAEMIA,Hypoglycaemia,10020993,Hypoglycaemia,10020993,Hypoglycaemic conditions NEC,10021001,Glucose metabolism disorders (incl diabetes mellitus),10018424,Metabolism and nutrition disorders,10027433,Metabolism and nutrition disorders,10027433,MILD,N,,,RECOVERED/RESOLVED,N,,2019-03-10,,20
CDISC-TEST,AE,CDISC-TEST-006,93,84,HYPOGLYCAEMIA,Hypoglycaemia,10020993,Hypoglycaemia,10020993,Hypoglycaemic conditions NEC,10021001,Glucose metabolism disorders (incl diabetes mellitus),10018424,Metabolism and nutrition disorders,10027433,Metabolism and nutrition disorders,10027433,MILD,N,,,RECOVERED/RESOLVED,N,,2019-04-16,,57
CDISC-TEST,AE,CDISC-TEST-006,94,83,HYPOGLYCAEMIA,Hypoglycaemia,10020993,Hypoglycaemia,10020993,Hypoglycaemic conditions NEC,10021001,Glucose metabolism disorders (incl diabetes mellitus),10018424,Metabolism and nutrition disorders,10027433,Metabolism and nutrition disorders,10027433,MILD,N,,,RECOVERED/RESOLVED,N,,2019-04-25,,66
CDISC-TEST,AE,CDISC-TEST-006,95,87,HYPOGLYCAEMIA,Hypoglycaemia,10020993,Hypoglycaemia,10020993,Hypoglycaemic conditions NEC,10021001,Glucose metabolism disorders (incl diabetes mellitus),10018424,Metabolism and nutrition disorders,10027433,Metabolism and nutrition disorders,10027433,MILD,N,,,RECOVERED/RESOLVED,N,,2019-04-27,,68
CDISC-TEST,AE,CDISC-TEST-006,96,94,HYPOGLYCAEMIA,Hypoglycaemia,10020993,Hypoglycaemia,10020993,Hypoglycaemic conditions NEC,10021001,Glucose metabolism disorders (incl diabetes mellitus),10018424,Metabolism and nutrition disorders,10027433,Metabolism and nutrition disorders,10027433,MILD,N,,,RECOVERED/RESOLVED,N,,2019-06-25,,127
CDISC-TEST,AE,CDISC-TEST-006,97,96,HYPOGLYCAEMIA,Hypoglycaemia,10020993,Hypoglycaemia,10020993,Hypoglycaemic conditions NEC,10021001,Glucose metabolism disorders (incl diabetes mellitus),10018424,Metabolism and nutrition disorders,10027433,Metabolism and nutrition disorders,10027433,MODERATE,N,,,RECOVERED/RESOLVED,N,,2019-06-30,,132
CDISC-TEST,AE,CDISC-TEST-006,98,97,HYPOGLYCAEMIA,Hypoglycaemia,10020993,Hypoglycaemia,10020993,Hypoglycaemic conditions NEC,10021001,Glucose metabolism disorders (incl diabetes mellitus),10018424,Metabolism and nutrition disorders,10027433,Metabolism and nutrition disorders,10027433,MILD,N,,,RECOVERED/RESOLVED,N,,2019-08-07,,170
CDISC-TEST,AE,CDISC-TEST-006,99,89,PNEUMONIA,Pneumonia,10035664,Pneumonia,10035664,Lower respiratory tract and lung infections,10025101,Infections - pathogen unspecified,10021879,Infections and infestations,10021881,Infections and infestations,10021881,MODERATE,N,,,RECOVERED/RESOLVED,Y,,2019-05-04,,75
CDISC-TEST,AE,CDISC-TEST-006,100,98,PNEUMONIA,Pneumonia,10035664,Pneumonia,10035664,Lower respiratory tract and lung infections,10025101,Infections - pathogen unspecified,10021879,Infections and infestations,10021881,Infections and infestations,10021881,MILD,N,,,RECOVERED/RESOLVED,N,,2019-06-11,,113
CDISC-TEST,AE,CDISC-TEST-007,101,108,UPSET STOMACH,Upset stomach,10046318,Abdominal discomfort,10000059,Gastrointestinal signs and symptoms NEC,10027678,Gastrointestinal signs and symptoms,10018012,Gastrointestinal disorders,10017947,Gastrointestinal disorders,10017947,MILD,N,,,RECOVERED/RESOLVED,N,,2019-02-28,,3
CDISC-TEST,AE,CDISC-TEST-007,102,102,UPSET STOMACH,Upset stomach,10046318,Abdominal discomfort,10000059,Gastrointestinal signs and symptoms NEC,10027678,Gastrointestinal signs and symptoms,10018012,Gastrointestinal disorders,10017947,Gastrointestinal disorders,10017947,MILD,N,,,RECOVERED/RESOLVED,N,,2019-06-17,,112
CDISC-TEST,AE,CDISC-TEST-007,103,119,UPSET STOMACH,Upset stomach,10046318,Abdominal discomfort,10000059,Gastrointestinal signs and symptoms NEC,10027678,Gastrointestinal signs and symptoms,10018012,Gastrointestinal disorders,10017947,Gastrointestinal disorders,10017947,MILD,N,,,RECOVERED/RESOLVED,N,,2019-08-23,,179
CDISC-TEST,AE,CDISC-TEST-007,104,117,DIARRHOEA,Diarrhoea,10012735,Diarrhoea,10012735,Diarrhoea (excl infective),10012736,Gastrointestinal motility and defaecation conditions,10017977,Gastrointestinal disorders,10017947,Gastrointestinal disorders,10017947,MILD,N,,,RECOVERED/RESOLVED,N,,2019-07-02,,127
CDISC-TEST,AE,CDISC-TEST-007,105,112,HEADACHE,Headache,10019211,Headache,10019211,Headaches NEC,10019233,Headaches,10019231,Nervous system disorders,10029205,Nervous system disorders,10029205,MILD,N,,,RECOVERED/RESOLVED,N,,2019-03-11,,14
CDISC-TEST,AE,CDISC-TEST-007,106,111,HEADACHE,Headache,10019211,Headache,10019211,Headaches NEC,10019233,Headaches,10019231,Nervous system disorders,10029205,Nervous system disorders,10029205,MILD,N,,,RECOVERED/RESOLVED,N,,2019-08-12,,168
CDISC-TEST,AE,CDISC-TEST-007,107,107,HEADACHE,Headache,10019211,Headache,10019211,Headaches NEC,10019233,Headaches,10019231,Nervous system disorders,10029205,Nervous system disorders,10029205,MILD,N,,,RECOVERED/RESOLVED,N,,2019-08-16,,172
CDISC-TEST,AE,CDISC-TEST-007,108,110,HEADACHE,Headache,10019211,Headache,10019211,Headaches NEC,10019233,Headaches,10019231,Nervous system disorders,10029205,Nervous system disorders,10029205,MILD,N,,,RECOVERED/RESOLVED,N,,2019-08-16,,172
CDISC-TEST,AE,CDISC-TEST-007,109,101,HYPERTENSION,Hypertension,10020772,Hypertension,10020772,Vascular hypertensive disorders NEC,10020774,Vascular hypertensive disorders,10057166,Vascular disorders,10047065,Vascular disorders,10047065,MODERATE,N,,,RECOVERED/RESOLVED,N,,2019-06-06,,101
CDISC-TEST,AE,CDISC-TEST-007,110,113,HYPOGLYCAEMIA,Hypoglycaemia,10020993,Hypoglycaemia,10020993,Hypoglycaemic conditions NEC,10021001,Glucose metabolism disorders (incl diabetes mellitus),10018424,Metabolism and nutrition disorders,10027433,Metabolism and nutrition disorders,10027433,MILD,N,,,RECOVERED/RESOLVED,N,,2019-06-12,,107
CDISC-TEST,AE,CDISC-TEST-007,111,118,HYPOGLYCAEMIA,Hypoglycaemia,10020993,Hypoglycaemia,10020993,Hypoglycaemic conditions NEC,10021001,Glucose metabolism disorders (incl diabetes mellitus),10018424,Metabolism and nutrition disorders,10027433,Metabolism and nutrition disorders,10027433,MILD,N,,,RECOVERED/RESOLVED,N,,2019-07-01,,126
CDISC-TEST,AE,CDISC-TEST-007,112,114,HYPOGLYCAEMIA,Hypoglycaemia,10020993,Hypoglycaemia,10020993,Hypoglycaemic conditions NEC,10021001,Glucose metabolism disorders (incl diabetes mellitus),10018424,Metabolism and nutrition disorders,10027433,Metabolism and nutrition disorders,10027433,MILD,N,,,RECOVERED/RESOLVED,N,,2019-07-18,,143
CDISC-TEST,AE,CDISC-TEST-007,113,106,HYPOGLYCAEMIC UNCONSCIOUSNESS,Hypoglycaemic unconsciousness,10065981,Hypoglycaemic unconsciousness,10065981,Disturbances in consciousness NEC,10013509,Neurological disorders NEC,10029305,Nervous system disorders,10029205,Nervous system disorders,10029205,MILD,N,,,RECOVERED/RESOLVED,N,,2019-07-23,,148
CDISC-TEST,AE,CDISC-TEST-007,114,105,NASOPHARYNGITIS,Nasopharyngitis,10028810,Nasopharyngitis,10028810,Upper respiratory tract infections,10046309,Infections - pathogen unspecified,10021879,Infections and infestations,10021881,Infections and infestations,10021881,MILD,N,,,RECOVERED/RESOLVED,N,,2019-05-22,,86
CDISC-TEST,AE,CDISC-TEST-007,115,115,PNEUMONIA,Pneumonia,10035664,Pneumonia,10035664,Lower respiratory tract and lung infections,10025101,Infections - pathogen unspecified,10021879,Infections and infestations,10021881,Infections and infestations,10021881,MODERATE,N,,,RECOVERED/RESOLVED,Y,,2019-04-26,,60
CDISC-TEST,AE,CDISC-TEST-007,116,103,PNEUMONIA,Pneumonia,10035664,Pneumonia,10035664,Lower respiratory tract and lung infections,10025101,Infections - pathogen unspecified,10021879,Infections and infestations,10021881,Infections and infestations,10021881,MODERATE,N,,,RECOVERED/RESOLVED,Y,,2019-05-21,,85
CDISC-TEST,AE,CDISC-TEST-007,117,104,PNEUMONIA,Pneumonia,10035664,Pneumonia,10035664,Lower respiratory tract and lung infections,10025101,Infections - pathogen unspecified,10021879,Infections and infestations,10021881,Infections and infestations,10021881,MILD,N,,,RECOVERED/RESOLVED,N,,2019-07-21,,146
CDISC-TEST,AE,CDISC-TEST-007,118,109,URINARY TRACT INFECTION,Urinary tract infection,10046571,Urinary tract infection,10046571,Urinary tract infections,10046577,Infections - pathogen unspecified,10021879,Infections and infestations,10021881,Infections and infestations,10021881,MILD,N,,,RECOVERED/RESOLVED,N,,2019-02-27,,2
CDISC-TEST,AE,CDISC-TEST-007,119,116,URINARY TRACT INFECTION,Urinary tract infection,10046571,Urinary tract infection,10046571,Urinary tract infections,10046577,Infections - pathogen unspecified,10021879,Infections and infestations,10021881,Infections and infestations,10021881,MODERATE,N,,,RECOVERED/RESOLVED,N,,2019-06-16,,111
CDISC-TEST,AE,CDISC-TEST-008,120,131,HEADACHE,Headache,10019211,Headache,10019211,Headaches NEC,10019233,Headaches,10019231,Nervous system disorders,10029205,Nervous system disorders,10029205,MILD,N,,,RECOVERED/RESOLVED,N,,2019-02-26,,20
CDISC-TEST,AE,CDISC-TEST-008,121,127,HEADACHE,Headache,10019211,Headache,10019211,Headaches NEC,10019233,Headaches,10019231,Nervous system disorders,10029205,Nervous system disorders,10029205,MILD,N,,,RECOVERED/RESOLVED,N,,2019-03-30,,52
CDISC-TEST,AE,CDISC-TEST-008,122,125,HEADACHE,Headache,10019211,Headache,10019211,Headaches NEC,10019233,Headaches,10019231,Nervous system disorders,10029205,Nervous system disorders,10029205,MILD,N,,,RECOVERED/RESOLVED,N,,2019-05-06,,89
CDISC-TEST,AE,CDISC-TEST-008,123,129,HEADACHE,Headache,10019211,Headache,10019211,Headaches NEC,10019233,Headaches,10019231,Nervous system disorders,10029205,Nervous system disorders,10029205,MILD,N,,,RECOVERED/RESOLVED,N,,2019-05-16,,99
CDISC-TEST,AE,CDISC-TEST-008,124,121,HEADACHE,Headache,10019211,Headache,10019211,Headaches NEC,10019233,Headaches,10019231,Nervous system disorders,10029205,Nervous system disorders,10029205,MILD,N,,,RECOVERED/RESOLVED,N,,2019-07-31,,175
CDISC-TEST,AE,CDISC-TEST-008,125,122,HYPERTENSION,Hypertension,10020772,Hypertension,10020772,Vascular hypertensive disorders NEC,10020774,Vascular hypertensive disorders,10057166,Vascular disorders,10047065,Vascular disorders,10047065,MILD,N,,,RECOVERED/RESOLVED,N,,2019-07-29,,173
CDISC-TEST,AE,CDISC-TEST-008,126,128,HYPOGLYCAEMIA,Hypoglycaemia,10020993,Hypoglycaemia,10020993,Hypoglycaemic conditions NEC,10021001,Glucose metabolism disorders (incl diabetes mellitus),10018424,Metabolism and nutrition disorders,10027433,Metabolism and nutrition disorders,10027433,MILD,N,,,RECOVERED/RESOLVED,N,,2019-02-09,,3
CDISC-TEST,AE,CDISC-TEST-008,127,133,HYPOGLYCAEMIA,Hypoglycaemia,10020993,Hypoglycaemia,10020993,Hypoglycaemic conditions NEC,10021001,Glucose metabolism disorders (incl diabetes mellitus),10018424,Metabolism and nutrition disorders,10027433,Metabolism and nutrition disorders,10027433,MILD,N,,,RECOVERED/RESOLVED,N,,2019-02-25,,19
CDISC-TEST,AE,CDISC-TEST-008,128,130,HYPOGLYCAEMIA,Hypoglycaemia,10020993,Hypoglycaemia,10020993,Hypoglycaemic conditions NEC,10021001,Glucose metabolism disorders (incl diabetes mellitus),10018424,Metabolism and nutrition disorders,10027433,Metabolism and nutrition disorders,10027433,MILD,N,,,RECOVERED/RESOLVED,N,,2019-04-01,,54
CDISC-TEST,AE,CDISC-TEST-008,129,123,NASOPHARYNGITIS,Nasopharyngitis,10028810,Nasopharyngitis,10028810,Upper respiratory tract infections,10046309,Infections - pathogen unspecified,10021879,Infections and infestations,10021881,Infections and infestations,10021881,MILD,N,,,RECOVERED/RESOLVED,N,,2019-02-24,,18
CDISC-TEST,AE,CDISC-TEST-008,130,120,NASOPHARYNGITIS,Nasopharyngitis,10028810,Nasopharyngitis,10028810,Upper respiratory tract infections,10046309,Infections - pathogen unspecified,10021879,Infections and infestations,10021881,Infections and infestations,10021881,MILD,N,,,RECOVERED/RESOLVED,N,,2019-07-31,,175
CDISC-TEST,AE,CDISC-TEST-008,131,126,PNEUMONIA,Pneumonia,10035664,Pneumonia,10035664,Lower respiratory tract and lung infections,10025101,Infections - pathogen unspecified,10021879,Infections and infestations,10021881,Infections and infestations,10021881,MILD,N,,,RECOVERED/RESOLVED,N,,2019-03-01,,23
CDISC-TEST,AE,CDISC-TEST-008,132,132,URINARY TRACT INFECTION,Urinary tract infection,10046571,Urinary tract infection,10046571,Urinary tract infections,10046577,Infections - pathogen unspecified,10021879,Infections and infestations,10021881,Infections and infestations,10021881,MILD,N,,,RECOVERED/RESOLVED,N,,2019-02-21,,15
CDISC-TEST,AE,CDISC-TEST-008,133,124,URINARY TRACT INFECTION,Urinary tract infection,10046571,Urinary tract infection,10046571,Urinary tract infections,10046577,Infections - pathogen unspecified,10021879,Infections and infestations,10021881,Infections and infestations,10021881,MILD,N,,,RECOVERED/RESOLVED,N,,2019-03-01,,23
CDISC-TEST,AE,CDISC-TEST-009,134,135,BRONCHITIS,Bronchitis,10006451,Bronchitis,10006451,Lower respiratory tract and lung infections,10025101,Infections - pathogen unspecified,10021879,Infections and infestations,10021881,Infections and infestations,10021881,MILD,N,,,RECOVERED/RESOLVED,N,,2019-04-28,,93
CDISC-TEST,AE,CDISC-TEST-009,135,136,BRONCHITIS,Bronchitis,10006451,Bronchitis,10006451,Lower respiratory tract and lung infections,10025101,Infections - pathogen unspecified,10021879,Infections and infestations,10021881,Infections and infestations,10021881,MODERATE,N,,,RECOVERED/RESOLVED,N,,2019-06-22,,148
CDISC-TEST,AE,CDISC-TEST-009,136,145,BRONCHITIS,Bronchitis,10006451,Bronchitis,10006451,Lower respiratory tract and lung infections,10025101,Infections - pathogen unspecified,10021879,Infections and infestations,10021881,Infections and infestations,10021881,MILD,N,,,RECOVERED/RESOLVED,N,,2019-06-27,,153
CDISC-TEST,AE,CDISC-TEST-009,137,148,CHRONIC OBSTRUCTIVE PULMONARY DISEASE,Chronic obstructive pulmonary disease,10009033,Chronic obstructive pulmonary disease,10009033,Bronchospasm and obstruction,10006484,Bronchial disorders (excl neoplasms),10006436,"Respiratory, thoracic and mediastinal disorders",10038738,"Respiratory, thoracic and mediastinal disorders",10038738,MILD,N,,,RECOVERED/RESOLVED,N,,2019-02-25,,31
CDISC-TEST,AE,CDISC-TEST-009,138,147,HEADACHE,Headache,10019211,Headache,10019211,Headaches NEC,10019233,Headaches,10019231,Nervous system disorders,10029205,Nervous system disorders,10029205,MODERATE,N,,,RECOVERED/RESOLVED,N,,2019-02-05,,11
CDISC-TEST,AE,CDISC-TEST-009,139,143,HEADACHE,Headache,10019211,Headache,10019211,Headaches NEC,10019233,Headaches,10019231,Nervous system disorders,10029205,Nervous system disorders,10029205,MILD,N,,,RECOVERED/RESOLVED,N,,2019-02-27,,33
CDISC-TEST,AE,CDISC-TEST-009,140,137,HEADACHE,Headache,10019211,Headache,10019211,Headaches NEC,10019233,Headaches,10019231,Nervous system disorders,10029205,Nervous system disorders,10029205,MILD,N,,,RECOVERED/RESOLVED,N,,2019-04-18,,83
CDISC-TEST,AE,CDISC-TEST-009,141,141,HYPERTENSION,Hypertension,10020772,Hypertension,10020772,Vascular hypertensive disorders NEC,10020774,Vascular hypertensive disorders,10057166,Vascular disorders,10047065,Vascular disorders,10047065,MILD,N,,,RECOVERED/RESOLVED,N,,2019-03-18,,52
CDISC-TEST,AE,CDISC-TEST-009,142,146,HYPERTENSION,Hypertension,10020772,Hypertension,10020772,Vascular hypertensive disorders NEC,10020774,Vascular hypertensive disorders,10057166,Vascular disorders,10047065,Vascular disorders,10047065,MILD,N,,,RECOVERED/RESOLVED,N,,2019-03-30,,64
CDISC-TEST,AE,CDISC-TEST-009,143,140,HYPOGLYCAEMIA,Hypoglycaemia,10020993,Hypoglycaemia,10020993,Hypoglycaemic conditions NEC,10021001,Glucose metabolism disorders (incl diabetes mellitus),10018424,Metabolism and nutrition disorders,10027433,Metabolism and nutrition disorders,10027433,MILD,N,,,RECOVERED/RESOLVED,N,,2019-02-05,,11
CDISC-TEST,AE,CDISC-TEST-009,144,144,HYPOGLYCAEMIA,Hypoglycaemia,10020993,Hypoglycaemia,10020993,Hypoglycaemic conditions NEC,10021001,Glucose metabolism disorders (incl diabetes mellitus),10018424,Metabolism and nutrition disorders,10027433,Metabolism and nutrition disorders,10027433,MILD,N,,,RECOVERED/RESOLVED,N,,2019-03-24,,58
CDISC-TEST,AE,CDISC-TEST-009,145,138,HYPOGLYCAEMIA,Hypoglycaemia,10020993,Hypoglycaemia,10020993,Hypoglycaemic conditions NEC,10021001,Glucose metabolism disorders (incl diabetes mellitus),10018424,Metabolism and nutrition disorders,10027433,Metabolism and nutrition disorders,10027433,MILD,N,,,RECOVERED/RESOLVED,N,,2019-04-17,,82
CDISC-TEST,AE,CDISC-TEST-009,146,142,NASOPHARYNGITIS,Nasopharyngitis,10028810,Nasopharyngitis,10028810,Upper respiratory tract infections,10046309,Infections - pathogen unspecified,10021879,Infections and infestations,10021881,Infections and infestations,10021881,MILD,N,,,RECOVERED/RESOLVED,N,,2019-03-04,,38
CDISC-TEST,AE,CDISC-TEST-009,147,139,PNEUMONIA,Pneumonia,10035664,Pneumonia,10035664,Lower respiratory tract and lung infections,10025101,Infections - pathogen unspecified,10021879,Infections and infestations,10021881,Infections and infestations,10021881,MODERATE,N,,,RECOVERED/RESOLVED,Y,,2019-02-26,,32
CDISC-TEST,AE,CDISC-TEST-009,148,134,URINARY TRACT INFECTION,Urinary tract infection,10046571,Urinary tract infection,10046571,Urinary tract infections,10046577,Infections - pathogen unspecified,10021879,Infections and infestations,10021881,Infections and infestations,10021881,MODERATE,N,,,RECOVERED/RESOLVED,N,,2019-04-10,,75
CDISC-TEST,AE,CDISC-TEST-010,149,157,BACK PAIN,Back pain,10003988,Back pain,10003988,Musculoskeletal and connective tissue pain and discomfort,10068757,Musculoskeletal and connective tissue disorders NEC,10028393,Musculoskeletal and connective tissue disorders,10028395,Musculoskeletal and connective tissue disorders,10028395,MILD,N,,,RECOVERED/RESOLVED,N,,2019-03-02,,39
CDISC-TEST,AE,CDISC-TEST-010,150,161,BACK PAIN,Back pain,10003988,Back pain,10003988,Musculoskeletal and connective tissue pain and discomfort,10068757,Musculoskeletal and connective tissue disorders NEC,10028393,Musculoskeletal and connective tissue disorders,10028395,Musculoskeletal and connective tissue disorders,10028395,MILD,N,,,RECOVERED/RESOLVED,N,,2019-05-02,,100
CDISC-TEST,AE,CDISC-TEST-010,151,156,BRONCHITIS,Bronchitis,10006451,Bronchitis,10006451,Lower respiratory tract and lung infections,10025101,Infections - pathogen unspecified,10021879,Infections and infestations,10021881,Infections and infestations,10021881,MILD,N,,,RECOVERED/RESOLVED,N,,2019-07-12,,171
CDISC-TEST,AE,CDISC-TEST-010,152,162,DIARRHOEA,Diarrhoea,10012735,Diarrhoea,10012735,Diarrhoea (excl infective),10012736,Gastrointestinal motility and defaecation conditions,10017977,Gastrointestinal disorders,10017947,Gastrointestinal disorders,10017947,MILD,N,,,RECOVERED/RESOLVED,N,,2019-01-23,,1
CDISC-TEST,AE,CDISC-TEST-010,153,151,DIARRHOEA,Diarrhoea,10012735,Diarrhoea,10012735,Diarrhoea (excl infective),10012736,Gastrointestinal motility and defaecation conditions,10017977,Gastrointestinal disorders,10017947,Gastrointestinal disorders,10017947,MILD,N,,,RECOVERED/RESOLVED,N,,2019-05-18,,116
CDISC-TEST,AE,CDISC-TEST-010,154,150,HEADACHE,Headache,10019211,Headache,10019211,Headaches NEC,10019233,Headaches,10019231,Nervous system disorders,10029205,Nervous system disorders,10029205,MILD,N,,,RECOVERED/RESOLVED,N,,2019-05-09,,107
CDISC-TEST,AE,CDISC-TEST-010,155,155,HEADACHE,Headache,10019211,Headache,10019211,Headaches NEC,10019233,Headaches,10019231,Nervous system disorders,10029205,Nervous system disorders,10029205,MILD,N,,,RECOVERED/RESOLVED,N,,2019-05-13,,111
CDISC-TEST,AE,CDISC-TEST-010,156,160,HYPERTENSION,Hypertension,10020772,Hypertension,10020772,Vascular hypertensive disorders NEC,10020774,Vascular hypertensive disorders,10057166,Vascular disorders,10047065,Vascular disorders,10047065,MILD,N,,,RECOVERED/RESOLVED,N,,2019-03-25,,62
CDISC-TEST,AE,CDISC-TEST-010,157,163,HYPERTENSION,Hypertension,10020772,Hypertension,10020772,Vascular hypertensive disorders NEC,10020774,Vascular hypertensive disorders,10057166,Vascular disorders,10047065,Vascular disorders,10047065,MILD,N,,,RECOVERED/RESOLVED,N,,2019-04-23,,91
CDISC-TEST,AE,CDISC-TEST-010,158,154,HYPERTENSION,Hypertension,10020772,Hypertension,10020772,Vascular hypertensive disorders NEC,10020774,Vascular hypertensive disorders,10057166,Vascular disorders,10047065,Vascular disorders,10047065,MILD,N,,,RECOVERED/RESOLVED,N,,2019-05-15,,113
CDISC-TEST,AE,CDISC-TEST-010,159,159,HYPOGLYCAEMIA,Hypoglycaemia,10020993,Hypoglycaemia,10020993,Hypoglycaemic conditions NEC,10021001,Glucose metabolism disorders (incl diabetes mellitus),10018424,Metabolism and nutrition disorders,10027433,Metabolism and nutrition disorders,10027433,MILD,N,,,RECOVERED/RESOLVED,N,,2019-03-25,,62
CDISC-TEST,AE,CDISC-TEST-010,160,164,HYPOGLYCAEMIA,Hypoglycaemia,10020993,Hypoglycaemia,10020993,Hypoglycaemic conditions NEC,10021001,Glucose metabolism disorders (incl diabetes mellitus),10018424,Metabolism and nutrition disorders,10027433,Metabolism and nutrition disorders,10027433,MILD,N,,,RECOVERED/RESOLVED,N,,2019-06-14,,143
CDISC-TEST,AE,CDISC-TEST-010,161,149,HYPOGLYCAEMIA,Hypoglycaemia,10020993,Hypoglycaemia,10020993,Hypoglycaemic conditions NEC,10021001,Glucose metabolism disorders (incl diabetes mellitus),10018424,Metabolism and nutrition disorders,10027433,Metabolism and nutrition disorders,10027433,MILD,N,,,RECOVERED/RESOLVED,N,,2019-06-26,,155
CDISC-TEST,AE,CDISC-TEST-010,162,165,HYPOGLYCAEMIA,Hypoglycaemia,10020993,Hypoglycaemia,10020993,Hypoglycaemic conditions NEC,10021001,Glucose metabolism disorders (incl diabetes mellitus),10018424,Metabolism and nutrition disorders,10027433,Metabolism and nutrition disorders,10027433,MILD,N,,,RECOVERED/RESOLVED,N,,2019-06-27,,156
CDISC-TEST,AE,CDISC-TEST-010,163,153,NASOPHARYNGITIS,Nasopharyngitis,10028810,Nasopharyngitis,10028810,Upper respiratory tract infections,10046309,Infections - pathogen unspecified,10021879,Infections and infestations,10021881,Infections and infestations,10021881,MILD,N,,,RECOVERED/RESOLVED,N,,2019-07-18,,177
CDISC-TEST,AE,CDISC-TEST-010,164,152,TRANSIENT ISCHAEMIC ATTACK,Transient ischaemic attack,10044390,Transient ischaemic attack,10044390,Transient cerebrovascular events,10044376,Central nervous system vascular disorders,10007963,Nervous system disorders,10029205,Nervous system disorders,10029205,SEVERE,Y,,,RECOVERING/RESOLVING,Y,,2019-05-05,,103
CDISC-TEST,AE,CDISC-TEST-010,165,158,URINARY TRACT INFECTION,Urinary tract infection,10046571,Urinary tract infection,10046571,Urinary tract infections,10046577,Infections - pathogen unspecified,10021879,Infections and infestations,10021881,Infections and infestations,10021881,MILD,N,,,RECOVERED/RESOLVED,N,,2019-05-27,,125
CDISC-TEST,AE,CDISC-TEST-011,166,184,UPSET STOMACH,Upset stomach,10046318,Abdominal discomfort,10000059,Gastrointestinal signs and symptoms NEC,10027678,Gastrointestinal signs and symptoms,10018012,Gastrointestinal disorders,10017947,Gastrointestinal disorders,10017947,MILD,N,,,RECOVERED/RESOLVED,N,,2019-07-08,,148
CDISC-TEST,AE,CDISC-TEST-011,167,176,BACK PAIN,Back pain,10003988,Back pain,10003988,Musculoskeletal and connective tissue pain and discomfort,10068757,Musculoskeletal and connective tissue disorders NEC,10028393,Musculoskeletal and connective tissue disorders,10028395,Musculoskeletal and connective tissue disorders,10028395,MODERATE,N,,,RECOVERED/RESOLVED,N,,2019-05-29,,108
CDISC-TEST,AE,CDISC-TEST-011,168,168,BACK PAIN,Back pain,10003988,Back pain,10003988,Musculoskeletal and connective tissue pain and discomfort,10068757,Musculoskeletal and connective tissue disorders NEC,10028393,Musculoskeletal and connective tissue disorders,10028395,Musculoskeletal and connective tissue disorders,10028395,MILD,N,,,RECOVERED/RESOLVED,N,,2019-08-05,,176
CDISC-TEST,AE,CDISC-TEST-011,169,173,BRONCHITIS,Bronchitis,10006451,Bronchitis,10006451,Lower respiratory tract and lung infections,10025101,Infections - pathogen unspecified,10021879,Infections and infestations,10021881,Infections and infestations,10021881,MILD,N,,,RECOVERED/RESOLVED,N,,2019-05-26,,105
CDISC-TEST,AE,CDISC-TEST-011,170,177,HEADACHE,Headache,10019211,Headache,10019211,Headaches NEC,10019233,Headaches,10019231,Nervous system disorders,10029205,Nervous system disorders,10029205,MILD,N,,,RECOVERED/RESOLVED,N,,2019-02-16,,6
CDISC-TEST,AE,CDISC-TEST-011,171,183,HEADACHE,Headache,10019211,Headache,10019211,Headaches NEC,10019233,Headaches,10019231,Nervous system disorders,10029205,Nervous system disorders,10029205,MILD,N,,,RECOVERED/RESOLVED,N,,2019-02-17,,7
CDISC-TEST,AE,CDISC-TEST-011,172,182,HEADACHE,Headache,10019211,Headache,10019211,Headaches NEC,10019233,Headaches,10019231,Nervous system disorders,10029205,Nervous system disorders,10029205,MILD,N,,,RECOVERED/RESOLVED,N,,2019-03-18,,36
CDISC-TEST,AE,CDISC-TEST-011,173,174,HEADACHE,Headache,10019211,Headache,10019211,Headaches NEC,10019233,Headaches,10019231,Nervous system disorders,10029205,Nervous system disorders,10029205,MILD,N,,,RECOVERED/RESOLVED,N,,2019-04-07,,56
CDISC-TEST,AE,CDISC-TEST-011,174,180,HEADACHE,Headache,10019211,Headache,10019211,Headaches NEC,10019233,Headaches,10019231,Nervous system disorders,10029205,Nervous system disorders,10029205,MILD,N,,,RECOVERED/RESOLVED,N,,2019-04-08,,57
CDISC-TEST,AE,CDISC-TEST-011,175,170,HEADACHE,Headache,10019211,Headache,10019211,Headaches NEC,10019233,Headaches,10019231,Nervous system disorders,10029205,Nervous system disorders,10029205,MILD,N,,,RECOVERED/RESOLVED,N,,2019-05-14,,93
CDISC-TEST,AE,CDISC-TEST-011,176,171,HEADACHE,Headache,10019211,Headache,10019211,Headaches NEC,10019233,Headaches,10019231,Nervous system disorders,10029205,Nervous system disorders,10029205,MILD,N,,,RECOVERED/RESOLVED,N,,2019-05-14,,93
CDISC-TEST,AE,CDISC-TEST-011,177,167,HEADACHE,Headache,10019211,Headache,10019211,Headaches NEC,10019233,Headaches,10019231,Nervous system disorders,10029205,Nervous system disorders,10029205,MILD,N,,,RECOVERED/RESOLVED,N,,2019-07-20,,160
CDISC-TEST,AE,CDISC-TEST-011,178,179,HYPERTENSION,Hypertension,10020772,Hypertension,10020772,Vascular hypertensive disorders NEC,10020774,Vascular hypertensive disorders,10057166,Vascular disorders,10047065,Vascular disorders,10047065,MILD,N,,,RECOVERED/RESOLVED,N,,2019-04-09,,58
CDISC-TEST,AE,CDISC-TEST-011,179,185,HYPERTENSION,Hypertension,10020772,Hypertension,10020772,Vascular hypertensive disorders NEC,10020774,Vascular hypertensive disorders,10057166,Vascular disorders,10047065,Vascular disorders,10047065,MILD,N,,,RECOVERED/RESOLVED,N,,2019-04-20,,69
CDISC-TEST,AE,CDISC-TEST-011,180,169,HYPERTENSION,Hypertension,10020772,Hypertension,10020772,Vascular hypertensive disorders NEC,10020774,Vascular hypertensive disorders,10057166,Vascular disorders,10047065,Vascular disorders,10047065,MILD,N,,,RECOVERED/RESOLVED,N,,2019-05-10,,89
CDISC-TEST,AE,CDISC-TEST-011,181,172,HYPERTENSION,Hypertension,10020772,Hypertension,10020772,Vascular hypertensive disorders NEC,10020774,Vascular hypertensive disorders,10057166,Vascular disorders,10047065,Vascular disorders,10047065,MILD,N,,,RECOVERED/RESOLVED,N,,2019-05-19,,98
CDISC-TEST,AE,CDISC-TEST-011,182,181,HYPOGLYCAEMIA,Hypoglycaemia,10020993,Hypoglycaemia,10020993,Hypoglycaemic conditions NEC,10021001,Glucose metabolism disorders (incl diabetes mellitus),10018424,Metabolism and nutrition disorders,10027433,Metabolism and nutrition disorders,10027433,MILD,N,,,RECOVERED/RESOLVED,N,,2019-03-04,,22
CDISC-TEST,AE,CDISC-TEST-011,183,175,HYPOGLYCAEMIA,Hypoglycaemia,10020993,Hypoglycaemia,10020993,Hypoglycaemic conditions NEC,10021001,Glucose metabolism disorders (incl diabetes mellitus),10018424,Metabolism and nutrition disorders,10027433,Metabolism and nutrition disorders,10027433,MILD,N,,,RECOVERED/RESOLVED,N,,2019-03-12,,30
CDISC-TEST,AE,CDISC-TEST-011,184,166,NASOPHARYNGITIS,Nasopharyngitis,10028810,Nasopharyngitis,10028810,Upper respiratory tract infections,10046309,Infections - pathogen unspecified,10021879,Infections and infestations,10021881,Infections and infestations,10021881,MODERATE,N,,,RECOVERED/RESOLVED,N,,2019-03-24,,42
CDISC-TEST,AE,CDISC-TEST-011,185,178,NASOPHARYNGITIS,Nasopharyngitis,10028810,Nasopharyngitis,10028810,Upper respiratory tract infections,10046309,Infections - pathogen unspecified,10021879,Infections and infestations,10021881,Infections and infestations,10021881,MILD,N,,,RECOVERED/RESOLVED,N,,2019-05-19,,98
CDISC-TEST,AE,CDISC-TEST-012,186,198,BRONCHITIS,Bronchitis,10006451,Bronchitis,10006451,Lower respiratory tract and lung infections,10025101,Infections - pathogen unspecified,10021879,Infections and infestations,10021881,Infections and infestations,10021881,MILD,N,,,RECOVERED/RESOLVED,N,,2019-08-24,,162
CDISC-TEST,AE,CDISC-TEST-012,187,190,BRONCHITIS,Bronchitis,10006451,Bronchitis,10006451,Lower respiratory tract and lung infections,10025101,Infections - pathogen unspecified,10021879,Infections and infestations,10021881,Infections and infestations,10021881,MILD,N,,,RECOVERED/RESOLVED,N,,2019-09-08,,177
CDISC-TEST,AE,CDISC-TEST-012,188,186,HEADACHE,Headache,10019211,Headache,10019211,Headaches NEC,10019233,Headaches,10019231,Nervous system disorders,10029205,Nervous system disorders,10029205,MILD,N,,,RECOVERED/RESOLVED,N,,2019-03-28,,13
CDISC-TEST,AE,CDISC-TEST-012,189,194,HEADACHE,Headache,10019211,Headache,10019211,Headaches NEC,10019233,Headaches,10019231,Nervous system disorders,10029205,Nervous system disorders,10029205,MILD,N,,,RECOVERED/RESOLVED,N,,2019-04-02,,18
CDISC-TEST,AE,CDISC-TEST-012,190,189,HEADACHE,Headache,10019211,Headache,10019211,Headaches NEC,10019233,Headaches,10019231,Nervous system disorders,10029205,Nervous system disorders,10029205,MILD,N,,,RECOVERED/RESOLVED,N,,2019-06-08,,85
CDISC-TEST,AE,CDISC-TEST-012,191,187,HEADACHE,Headache,10019211,Headache,10019211,Headaches NEC,10019233,Headaches,10019231,Nervous system disorders,10029205,Nervous system disorders,10029205,MILD,N,,,RECOVERED/RESOLVED,N,,2019-07-11,,118
CDISC-TEST,AE,CDISC-TEST-012,192,188,HEADACHE,Headache,10019211,Headache,10019211,Headaches NEC,10019233,Headaches,10019231,Nervous system disorders,10029205,Nervous system disorders,10029205,MILD,N,,,RECOVERED/RESOLVED,N,,2019-09-04,,173
CDISC-TEST,AE,CDISC-TEST-012,193,196,HYPERTENSION,Hypertension,10020772,Hypertension,10020772,Vascular hypertensive disorders NEC,10020774,Vascular hypertensive disorders,10057166,Vascular disorders,10047065,Vascular disorders,10047065,MILD,N,,,RECOVERED/RESOLVED,N,,2019-03-23,,8
CDISC-TEST,AE,CDISC-TEST-012,194,195,HYPERTENSION,Hypertension,10020772,Hypertension,10020772,Vascular hypertensive disorders NEC,10020774,Vascular hypertensive disorders,10057166,Vascular disorders,10047065,Vascular disorders,10047065,MILD,N,,,RECOVERED/RESOLVED,N,,2019-05-01,,47
CDISC-TEST,AE,CDISC-TEST-012,195,192,HYPOGLYCAEMIA,Hypoglycaemia,10020993,Hypoglycaemia,10020993,Hypoglycaemic conditions NEC,10021001,Glucose metabolism disorders (incl diabetes mellitus),10018424,Metabolism and nutrition disorders,10027433,Metabolism and nutrition disorders,10027433,MILD,N,,,RECOVERED/RESOLVED,N,,2019-04-24,,40
CDISC-TEST,AE,CDISC-TEST-012,196,191,HYPOGLYCAEMIA,Hypoglycaemia,10020993,Hypoglycaemia,10020993,Hypoglycaemic conditions NEC,10021001,Glucose metabolism disorders (incl diabetes mellitus),10018424,Metabolism and nutrition disorders,10027433,Metabolism and nutrition disorders,10027433,MILD,N,,,RECOVERED/RESOLVED,N,,2019-05-05,,51
CDISC-TEST,AE,CDISC-TEST-012,197,197,HYPOGLYCAEMIA,Hypoglycaemia,10020993,Hypoglycaemia,10020993,Hypoglycaemic conditions NEC,10021001,Glucose metabolism disorders (incl diabetes mellitus),10018424,Metabolism and nutrition disorders,10027433,Metabolism and nutrition disorders,10027433,MILD,N,,,RECOVERED/RESOLVED,N,,2019-07-24,,131
CDISC-TEST,AE,CDISC-TEST-012,198,193,NASOPHARYNGITIS,Nasopharyngitis,10028810,Nasopharyngitis,10028810,Upper respiratory tract infections,10046309,Infections - pathogen unspecified,10021879,Infections and infestations,10021881,Infections and infestations,10021881,MILD,N,,,RECOVERED/RESOLVED,N,,2019-04-01,,17
CDISC-TEST,AE,CDISC-TEST-013,199,212,BACK PAIN,Back pain,10003988,Back pain,10003988,Musculoskeletal and connective tissue pain and discomfort,10068757,Musculoskeletal and connective tissue disorders NEC,10028393,Musculoskeletal and connective tissue disorders,10028395,Musculoskeletal and connective tissue disorders,10028395,MILD,N,,,RECOVERED/RESOLVED,N,,2019-03-18,,8
CDISC-TEST,AE,CDISC-TEST-013,200,205,BRONCHITIS,Bronchitis,10006451,Bronchitis,10006451,Lower respiratory tract and lung infections,10025101,Infections - pathogen unspecified,10021879,Infections and infestations,10021881,Infections and infestations,10021881,MILD,N,,,RECOVERED/RESOLVED,N,,2019-07-05,,117
CDISC-TEST,AE,CDISC-TEST-013,201,199,CHRONIC OBSTRUCTIVE PULMONARY DISEASE,Chronic obstructive pulmonary disease,10009033,Chronic obstructive pulmonary disease,10009033,Bronchospasm and obstruction,10006484,Bronchial disorders (excl neoplasms),10006436,"Respiratory, thoracic and mediastinal disorders",10038738,"Respiratory, thoracic and mediastinal disorders",10038738,MILD,N,,,RECOVERED/RESOLVED,N,,2019-06-09,,91
CDISC-TEST,AE,CDISC-TEST-013,202,214,DIARRHOEA,Diarrhoea,10012735,Diarrhoea,10012735,Diarrhoea (excl infective),10012736,Gastrointestinal motility and defaecation conditions,10017977,Gastrointestinal disorders,10017947,Gastrointestinal disorders,10017947,MILD,N,,,RECOVERED/RESOLVED,N,,2019-08-19,,162
CDISC-TEST,AE,CDISC-TEST-013,203,204,DIARRHOEA,Diarrhoea,10012735,Diarrhoea,10012735,Diarrhoea (excl infective),10012736,Gastrointestinal motility and defaecation conditions,10017977,Gastrointestinal disorders,10017947,Gastrointestinal disorders,10017947,MILD,N,,,RECOVERED/RESOLVED,N,,2019-08-30,,173
CDISC-TEST,AE,CDISC-TEST-013,204,202,HEADACHE,Headache,10019211,Headache,10019211,Headaches NEC,10019233,Headaches,10019231,Nervous system disorders,10029205,Nervous system disorders,10029205,MILD,N,,,RECOVERED/RESOLVED,N,,2019-03-24,,14
CDISC-TEST,AE,CDISC-TEST-013,205,210,HEADACHE,Headache,10019211,Headache,10019211,Headaches NEC,10019233,Headaches,10019231,Nervous system disorders,10029205,Nervous system disorders,10029205,MILD,N,,,RECOVERED/RESOLVED,N,,2019-04-01,,22
CDISC-TEST,AE,CDISC-TEST-013,206,208,HEADACHE,Headache,10019211,Headache,10019211,Headaches NEC,10019233,Headaches,10019231,Nervous system disorders,10029205,Nervous system disorders,10029205,MILD,N,,,RECOVERED/RESOLVED,N,,2019-04-22,,43
CDISC-TEST,AE,CDISC-TEST-013,207,206,HEADACHE,Headache,10019211,Headache,10019211,Headaches NEC,10019233,Headaches,10019231,Nervous system disorders,10029205,Nervous system disorders,10029205,MILD,N,,,RECOVERED/RESOLVED,N,,2019-04-30,,51
CDISC-TEST,AE,CDISC-TEST-013,208,203,HEADACHE,Headache,10019211,Headache,10019211,Headaches NEC,10019233,Headaches,10019231,Nervous system disorders,10029205,Nervous system disorders,10029205,MILD,N,,,RECOVERED/RESOLVED,N,,2019-09-03,,177
CDISC-TEST,AE,CDISC-TEST-013,209,213,HYPERTENSION,Hypertension,10020772,Hypertension,10020772,Vascular hypertensive disorders NEC,10020774,Vascular hypertensive disorders,10057166,Vascular disorders,10047065,Vascular disorders,10047065,MILD,N,,,RECOVERED/RESOLVED,N,,2019-09-04,,178
CDISC-TEST,AE,CDISC-TEST-013,210,207,HYPOGLYCAEMIA,Hypoglycaemia,10020993,Hypoglycaemia,10020993,Hypoglycaemic conditions NEC,10021001,Glucose metabolism disorders (incl diabetes mellitus),10018424,Metabolism and nutrition disorders,10027433,Metabolism and nutrition disorders,10027433,MILD,N,,,RECOVERED/RESOLVED,N,,2019-04-22,,43
CDISC-TEST,AE,CDISC-TEST-013,211,209,NASOPHARYNGITIS,Nasopharyngitis,10028810,Nasopharyngitis,10028810,Upper respiratory tract infections,10046309,Infections - pathogen unspecified,10021879,Infections and infestations,10021881,Infections and infestations,10021881,MILD,N,,,RECOVERED/RESOLVED,N,,2019-05-05,,56
CDISC-TEST,AE,CDISC-TEST-013,212,200,NASOPHARYNGITIS,Nasopharyngitis,10028810,Nasopharyngitis,10028810,Upper respiratory tract infections,10046309,Infections - pathogen unspecified,10021879,Infections and infestations,10021881,Infections and infestations,10021881,MILD,N,,,RECOVERED/RESOLVED,N,,2019-06-15,,97
CDISC-TEST,AE,CDISC-TEST-013,213,201,NASOPHARYNGITIS,Nasopharyngitis,10028810,Nasopharyngitis,10028810,Upper respiratory tract infections,10046309,Infections - pathogen unspecified,10021879,Infections and infestations,10021881,Infections and infestations,10021881,MILD,N,,,RECOVERED/RESOLVED,N,,2019-08-19,,162
CDISC-TEST,AE,CDISC-TEST-013,214,211,URINARY TRACT INFECTION,Urinary tract infection,10046571,Urinary tract infection,10046571,Urinary tract infections,10046577,Infections - pathogen unspecified,10021879,Infections and infestations,10021881,Infections and infestations,10021881,MILD,N,,,RECOVERED/RESOLVED,N,,2019-03-31,,21
CDISC-TEST,AE,CDISC-TEST-014,215,221,BRONCHITIS,Bronchitis,10006451,Bronchitis,10006451,Lower respiratory tract and lung infections,10025101,Infections - pathogen unspecified,10021879,Infections and infestations,10021881,Infections and infestations,10021881,MILD,N,,,RECOVERED/RESOLVED,N,,2019-04-10,,51
CDISC-TEST,AE,CDISC-TEST-014,216,223,HEADACHE,Headache,10019211,Headache,10019211,Headaches NEC,10019233,Headaches,10019231,Nervous system disorders,10029205,Nervous system disorders,10029205,MILD,N,,,RECOVERED/RESOLVED,N,,2019-03-07,,17
CDISC-TEST,AE,CDISC-TEST-014,217,222,HEADACHE,Headache,10019211,Headache,10019211,Headaches NEC,10019233,Headaches,10019231,Nervous system disorders,10029205,Nervous system disorders,10029205,MILD,N,,,RECOVERED/RESOLVED,N,,2019-04-19,,60
CDISC-TEST,AE,CDISC-TEST-014,218,215,HEADACHE,Headache,10019211,Headache,10019211,Headaches NEC,10019233,Headaches,10019231,Nervous system disorders,10029205,Nervous system disorders,10029205,MILD,N,,,RECOVERED/RESOLVED,N,,2019-06-14,,116
CDISC-TEST,AE,CDISC-TEST-014,219,219,HEADACHE,Headache,10019211,Headache,10019211,Headaches NEC,10019233,Headaches,10019231,Nervous system disorders,10029205,Nervous system disorders,10029205,MILD,N,,,RECOVERED/RESOLVED,N,,2019-07-29,,161
CDISC-TEST,AE,CDISC-TEST-014,220,224,HYPERTENSION,Hypertension,10020772,Hypertension,10020772,Vascular hypertensive disorders NEC,10020774,Vascular hypertensive disorders,10057166,Vascular disorders,10047065,Vascular disorders,10047065,MILD,N,,,RECOVERED/RESOLVED,N,,2019-04-01,,42
CDISC-TEST,AE,CDISC-TEST-014,221,217,HYPERTENSION,Hypertension,10020772,Hypertension,10020772,Vascular hypertensive disorders NEC,10020774,Vascular hypertensive disorders,10057166,Vascular disorders,10047065,Vascular disorders,10047065,MILD,N,,,RECOVERED/RESOLVED,N,,2019-07-26,,158
CDISC-TEST,AE,CDISC-TEST-014,222,225,HYPOGLYCAEMIA,Hypoglycaemia,10020993,Hypoglycaemia,10020993,Hypoglycaemic conditions NEC,10021001,Glucose metabolism disorders (incl diabetes mellitus),10018424,Metabolism and nutrition disorders,10027433,Metabolism and nutrition disorders,10027433,MILD,N,,,RECOVERED/RESOLVED,N,,2019-02-28,,10
CDISC-TEST,AE,CDISC-TEST-014,223,218,HYPOGLYCAEMIA,Hypoglycaemia,10020993,Hypoglycaemia,10020993,Hypoglycaemic conditions NEC,10021001,Glucose metabolism disorders (incl diabetes mellitus),10018424,Metabolism and nutrition disorders,10027433,Metabolism and nutrition disorders,10027433,MILD,N,,,RECOVERED/RESOLVED,N,,2019-04-09,,50
CDISC-TEST,AE,CDISC-TEST-014,224,216,NASOPHARYNGITIS,Nasopharyngitis,10028810,Nasopharyngitis,10028810,Upper respiratory tract infections,10046309,Infections - pathogen unspecified,10021879,Infections and infestations,10021881,Infections and infestations,10021881,MILD,N,,,RECOVERED/RESOLVED,N,,2019-03-20,,30
CDISC-TEST,AE,CDISC-TEST-014,225,220,NASOPHARYNGITIS,Nasopharyngitis,10028810,Nasopharyngitis,10028810,Upper respiratory tract infections,10046309,Infections - pathogen unspecified,10021879,Infections and infestations,10021881,Infections and infestations,10021881,MILD,N,,,RECOVERED/RESOLVED,N,,2019-08-06,,169
CDISC-TEST,AE,CDISC-TEST-014,226,226,URINARY TRACT INFECTION,Urinary tract infection,10046571,Urinary tract infection,10046571,Urinary tract infections,10046577,Infections - pathogen unspecified,10021879,Infections and infestations,10021881,Infections and infestations,10021881,MILD,N,,,RECOVERED/RESOLVED,N,,2019-07-25,,157
CDISC-TEST,AE,CDISC-TEST-015,227,237,BRONCHITIS,Bronchitis,10006451,Bronchitis,10006451,Lower respiratory tract and lung infections,10025101,Infections - pathogen unspecified,10021879,Infections and infestations,10021881,Infections and infestations,10021881,MILD,N,,,RECOVERED/RESOLVED,N,,2019-04-04,,65
CDISC-TEST,AE,CDISC-TEST-015,228,236,DIARRHOEA,Diarrhoea,10012735,Diarrhoea,10012735,Diarrhoea (excl infective),10012736,Gastrointestinal motility and defaecation conditions,10017977,Gastrointestinal disorders,10017947,Gastrointestinal disorders,10017947,MILD,N,,,RECOVERED/RESOLVED,N,,2019-05-25,,116
CDISC-TEST,AE,CDISC-TEST-015,229,228,HEADACHE,Headache,10019211,Headache,10019211,Headaches NEC,10019233,Headaches,10019231,Nervous system disorders,10029205,Nervous system disorders,10029205,MILD,N,,,RECOVERED/RESOLVED,N,,2019-03-30,,60
CDISC-TEST,AE,CDISC-TEST-015,230,230,HEADACHE,Headache,10019211,Headache,10019211,Headaches NEC,10019233,Headaches,10019231,Nervous system disorders,10029205,Nervous system disorders,10029205,MILD,N,,,RECOVERED/RESOLVED,N,,2019-04-03,,64
CDISC-TEST,AE,CDISC-TEST-015,231,227,HEADACHE,Headache,10019211,Headache,10019211,Headaches NEC,10019233,Headaches,10019231,Nervous system disorders,10029205,Nervous system disorders,10029205,MODERATE,N,,,RECOVERED/RESOLVED,N,,2019-04-27,,88
CDISC-TEST,AE,CDISC-TEST-015,232,231,HYPOGLYCAEMIA,Hypoglycaemia,10020993,Hypoglycaemia,10020993,Hypoglycaemic conditions NEC,10021001,Glucose metabolism disorders (incl diabetes mellitus),10018424,Metabolism and nutrition disorders,10027433,Metabolism and nutrition disorders,10027433,MILD,N,,,RECOVERED/RESOLVED,N,,2019-03-20,,50
CDISC-TEST,AE,CDISC-TEST-015,233,229,HYPOGLYCAEMIA,Hypoglycaemia,10020993,Hypoglycaemia,10020993,Hypoglycaemic conditions NEC,10021001,Glucose metabolism disorders (incl diabetes mellitus),10018424,Metabolism and nutrition disorders,10027433,Metabolism and nutrition disorders,10027433,MILD,N,,,RECOVERED/RESOLVED,N,,2019-03-31,,61
CDISC-TEST,AE,CDISC-TEST-015,234,233,HYPOGLYCAEMIA,Hypoglycaemia,10020993,Hypoglycaemia,10020993,Hypoglycaemic conditions NEC,10021001,Glucose metabolism disorders (incl diabetes mellitus),10018424,Metabolism and nutrition disorders,10027433,Metabolism and nutrition disorders,10027433,MILD,N,,,RECOVERED/RESOLVED,N,,2019-04-03,,64
CDISC-TEST,AE,CDISC-TEST-015,235,239,HYPOGLYCAEMIA,Hypoglycaemia,10020993,Hypoglycaemia,10020993,Hypoglycaemic conditions NEC,10021001,Glucose metabolism disorders (incl diabetes mellitus),10018424,Metabolism and nutrition disorders,10027433,Metabolism and nutrition disorders,10027433,MILD,N,,,RECOVERED/RESOLVED,N,,2019-05-17,,108
CDISC-TEST,AE,CDISC-TEST-015,236,234,NASOPHARYNGITIS,Nasopharyngitis,10028810,Nasopharyngitis,10028810,Upper respiratory tract infections,10046309,Infections - pathogen unspecified,10021879,Infections and infestations,10021881,Infections and infestations,10021881,MILD,N,,,RECOVERED/RESOLVED,N,,2019-05-20,,111
CDISC-TEST,AE,CDISC-TEST-015,237,238,NASOPHARYNGITIS,Nasopharyngitis,10028810,Nasopharyngitis,10028810,Upper respiratory tract infections,10046309,Infections - pathogen unspecified,10021879,Infections and infestations,10021881,Infections and infestations,10021881,MILD,N,,,RECOVERED/RESOLVED,N,,2019-06-19,,141
CDISC-TEST,AE,CDISC-TEST-015,238,235,PNEUMONIA,Pneumonia,10035664,Pneumonia,10035664,Lower respiratory tract and lung infections,10025101,Infections - pathogen unspecified,10021879,Infections and infestations,10021881,Infections and infestations,10021881,MILD,N,,,RECOVERED/RESOLVED,N,,2019-05-20,,111
CDISC-TEST,AE,CDISC-TEST-015,239,232,SILENT MYOCARDIAL INFARCTION,Silent myocardial infarction,10049768,Silent myocardial infarction,10049768,Ischaemic coronary artery disorders,10011085,Coronary artery disorders,10011082,Cardiac disorders,10007541,Cardiac disorders,10007541,SEVERE,Y,,,RECOVERING/RESOLVING,Y,,2019-07-08,,160
CDISC-TEST,AE,CDISC-TEST-016,240,253,UPSET STOMACH,Upset stomach,10046318,Abdominal discomfort,10000059,Gastrointestinal signs and symptoms NEC,10027678,Gastrointestinal signs and symptoms,10018012,Gastrointestinal disorders,10017947,Gastrointestinal disorders,10017947,MILD,N,,,RECOVERED/RESOLVED,N,,2019-03-22,,20
CDISC-TEST,AE,CDISC-TEST-016,241,250,UPSET STOMACH,Upset stomach,10046318,Abdominal discomfort,10000059,Gastrointestinal signs and symptoms NEC,10027678,Gastrointestinal signs and symptoms,10018012,Gastrointestinal disorders,10017947,Gastrointestinal disorders,10017947,MILD,N,,,RECOVERED/RESOLVED,N,,2019-06-24,,114
CDISC-TEST,AE,CDISC-TEST-016,242,244,BACK PAIN,Back pain,10003988,Back pain,10003988,Musculoskeletal and connective tissue pain and discomfort,10068757,Musculoskeletal and connective tissue disorders NEC,10028393,Musculoskeletal and connective tissue disorders,10028395,Musculoskeletal and connective tissue disorders,10028395,MILD,N,,,RECOVERED/RESOLVED,N,,2019-06-07,,97
CDISC-TEST,AE,CDISC-TEST-016,243,257,BRONCHITIS,Bronchitis,10006451,Bronchitis,10006451,Lower respiratory tract and lung infections,10025101,Infections - pathogen unspecified,10021879,Infections and infestations,10021881,Infections and infestations,10021881,MILD,N,,,RECOVERED/RESOLVED,N,,2019-04-14,,43
CDISC-TEST,AE,CDISC-TEST-016,244,241,DIARRHOEA,Diarrhoea,10012735,Diarrhoea,10012735,Diarrhoea (excl infective),10012736,Gastrointestinal motility and defaecation conditions,10017977,Gastrointestinal disorders,10017947,Gastrointestinal disorders,10017947,MILD,N,,,RECOVERED/RESOLVED,N,,2019-06-26,,116
CDISC-TEST,AE,CDISC-TEST-016,245,259,HEADACHE,Headache,10019211,Headache,10019211,Headaches NEC,10019233,Headaches,10019231,Nervous system disorders,10029205,Nervous system disorders,10029205,MILD,N,,,RECOVERED/RESOLVED,N,,2019-04-09,,38
CDISC-TEST,AE,CDISC-TEST-016,246,243,HEADACHE,Headache,10019211,Headache,10019211,Headaches NEC,10019233,Headaches,10019231,Nervous system disorders,10029205,Nervous system disorders,10029205,MILD,N,,,RECOVERED/RESOLVED,N,,2019-05-08,,67
CDISC-TEST,AE,CDISC-TEST-016,247,248,HEADACHE,Headache,10019211,Headache,10019211,Headaches NEC,10019233,Headaches,10019231,Nervous system disorders,10029205,Nervous system disorders,10029205,MILD,N,,,RECOVERED/RESOLVED,N,,2019-08-05,,156
CDISC-TEST,AE,CDISC-TEST-016,248,258,HYPERTENSION,Hypertension,10020772,Hypertension,10020772,Vascular hypertensive disorders NEC,10020774,Vascular hypertensive disorders,10057166,Vascular disorders,10047065,Vascular disorders,10047065,MODERATE,N,,,RECOVERED/RESOLVED,N,,2019-03-27,,25
CDISC-TEST,AE,CDISC-TEST-016,249,247,HYPERTENSION,Hypertension,10020772,Hypertension,10020772,Vascular hypertensive disorders NEC,10020774,Vascular hypertensive disorders,10057166,Vascular disorders,10047065,Vascular disorders,10047065,MILD,N,,,RECOVERED/RESOLVED,N,,2019-03-28,,26
CDISC-TEST,AE,CDISC-TEST-016,250,242,HYPERTENSION,Hypertension,10020772,Hypertension,10020772,Vascular hypertensive disorders NEC,10020774,Vascular hypertensive disorders,10057166,Vascular disorders,10047065,Vascular disorders,10047065,MILD,N,,,RECOVERED/RESOLVED,N,,2019-07-20,,140
CDISC-TEST,AE,CDISC-TEST-016,251,251,HYPERTENSION,Hypertension,10020772,Hypertension,10020772,Vascular hypertensive disorders NEC,10020774,Vascular hypertensive disorders,10057166,Vascular disorders,10047065,Vascular disorders,10047065,MILD,N,,,RECOVERED/RESOLVED,N,,2019-07-29,,149
CDISC-TEST,AE,CDISC-TEST-016,252,245,HYPERTENSION,Hypertension,10020772,Hypertension,10020772,Vascular hypertensive disorders NEC,10020774,Vascular hypertensive disorders,10057166,Vascular disorders,10047065,Vascular disorders,10047065,MILD,N,,,RECOVERED/RESOLVED,N,,2019-08-09,,160
CDISC-TEST,AE,CDISC-TEST-016,253,256,HYPOGLYCAEMIA,Hypoglycaemia,10020993,Hypoglycaemia,10020993,Hypoglycaemic conditions NEC,10021001,Glucose metabolism disorders (incl diabetes mellitus),10018424,Metabolism and nutrition disorders,10027433,Metabolism and nutrition disorders,10027433,MILD,N,,,RECOVERED/RESOLVED,N,,2019-04-03,,32
CDISC-TEST,AE,CDISC-TEST-016,254,252,HYPOGLYCAEMIA,Hypoglycaemia,10020993,Hypoglycaemia,10020993,Hypoglycaemic conditions NEC,10021001,Glucose metabolism disorders (incl diabetes mellitus),10018424,Metabolism and nutrition disorders,10027433,Metabolism and nutrition disorders,10027433,MODERATE,N,,,RECOVERED/RESOLVED,N,,2019-06-11,,101
CDISC-TEST,AE,CDISC-TEST-016,255,254,HYPOGLYCAEMIA,Hypoglycaemia,10020993,Hypoglycaemia,10020993,Hypoglycaemic conditions NEC,10021001,Glucose metabolism disorders (incl diabetes mellitus),10018424,Metabolism and nutrition disorders,10027433,Metabolism and nutrition disorders,10027433,MILD,N,,,RECOVERED/RESOLVED,N,,2019-08-25,,176
CDISC-TEST,AE,CDISC-TEST-016,256,246,NASOPHARYNGITIS,Nasopharyngitis,10028810,Nasopharyngitis,10028810,Upper respiratory tract infections,10046309,Infections - pathogen unspecified,10021879,Infections and infestations,10021881,Infections and infestations,10021881,MILD,N,,,RECOVERED/RESOLVED,N,,2019-05-18,,77
CDISC-TEST,AE,CDISC-TEST-016,257,249,NASOPHARYNGITIS,Nasopharyngitis,10028810,Nasopharyngitis,10028810,Upper respiratory tract infections,10046309,Infections - pathogen unspecified,10021879,Infections and infestations,10021881,Infections and infestations,10021881,MILD,N,,,RECOVERED/RESOLVED,N,,2019-08-03,,154
CDISC-TEST,AE,CDISC-TEST-016,258,255,PNEUMONIA,Pneumonia,10035664,Pneumonia,10035664,Lower respiratory tract and lung infections,10025101,Infections - pathogen unspecified,10021879,Infections and infestations,10021881,Infections and infestations,10021881,MILD,N,,,RECOVERED/RESOLVED,N,,2019-04-24,,53
CDISC-TEST,AE,CDISC-TEST-016,259,240,URINARY TRACT INFECTION,Urinary tract infection,10046571,Urinary tract infection,10046571,Urinary tract infections,10046577,Infections - pathogen unspecified,10021879,Infections and infestations,10021881,Infections and infestations,10021881,MILD,N,,,RECOVERED/RESOLVED,N,,2019-08-11,,162
CDISC-TEST,AE,CDISC-TEST-017,260,279,UPSET STOMACH,Upset stomach,10046318,Abdominal discomfort,10000059,Gastrointestinal signs and symptoms NEC,10027678,Gastrointestinal signs and symptoms,10018012,Gastrointestinal disorders,10017947,Gastrointestinal disorders,10017947,MILD,N,,,RECOVERED/RESOLVED,N,,2019-02-27,,18
CDISC-TEST,AE,CDISC-TEST-017,261,267,UPSET STOMACH,Upset stomach,10046318,Abdominal discomfort,10000059,Gastrointestinal signs and symptoms NEC,10027678,Gastrointestinal signs and symptoms,10018012,Gastrointestinal disorders,10017947,Gastrointestinal disorders,10017947,MILD,N,,,RECOVERED/RESOLVED,N,,2019-06-21,,132
CDISC-TEST,AE,CDISC-TEST-017,262,276,BACK PAIN,Back pain,10003988,Back pain,10003988,Musculoskeletal and connective tissue pain and discomfort,10068757,Musculoskeletal and connective tissue disorders NEC,10028393,Musculoskeletal and connective tissue disorders,10028395,Musculoskeletal and connective tissue disorders,10028395,MILD,N,,,RECOVERED/RESOLVED,N,,2019-06-13,,124
CDISC-TEST,AE,CDISC-TEST-017,263,265,BRONCHITIS,Bronchitis,10006451,Bronchitis,10006451,Lower respiratory tract and lung infections,10025101,Infections - pathogen unspecified,10021879,Infections and infestations,10021881,Infections and infestations,10021881,MILD,N,,,RECOVERED/RESOLVED,N,,2019-03-11,,30
CDISC-TEST,AE,CDISC-TEST-017,264,268,BRONCHITIS,Bronchitis,10006451,Bronchitis,10006451,Lower respiratory tract and lung infections,10025101,Infections - pathogen unspecified,10021879,Infections and infestations,10021881,Infections and infestations,10021881,MILD,N,,,RECOVERED/RESOLVED,N,,2019-07-07,,148
CDISC-TEST,AE,CDISC-TEST-017,265,277,HEADACHE,Headache,10019211,Headache,10019211,Headaches NEC,10019233,Headaches,10019231,Nervous system disorders,10029205,Nervous system disorders,10029205,MILD,N,,,RECOVERED/RESOLVED,N,,2019-03-07,,26
CDISC-TEST,AE,CDISC-TEST-017,266,266,HEADACHE,Headache,10019211,Headache,10019211,Headaches NEC,10019233,Headaches,10019231,Nervous system disorders,10029205,Nervous system disorders,10029205,MILD,N,,,RECOVERED/RESOLVED,N,,2019-04-11,,61
CDISC-TEST,AE,CDISC-TEST-017,267,275,HEADACHE,Headache,10019211,Headache,10019211,Headaches NEC,10019233,Headaches,10019231,Nervous system disorders,10029205,Nervous system disorders,10029205,MILD,N,,,RECOVERED/RESOLVED,N,,2019-04-20,,70
CDISC-TEST,AE,CDISC-TEST-017,268,274,HEADACHE,Headache,10019211,Headache,10019211,Headaches NEC,10019233,Headaches,10019231,Nervous system disorders,10029205,Nervous system disorders,10029205,MILD,N,,,RECOVERED/RESOLVED,N,,2019-07-07,,148
CDISC-TEST,AE,CDISC-TEST-017,269,271,HYPERTENSION,Hypertension,10020772,Hypertension,10020772,Vascular hypertensive disorders NEC,10020774,Vascular hypertensive disorders,10057166,Vascular disorders,10047065,Vascular disorders,10047065,MILD,N,,,RECOVERED/RESOLVED,N,,2019-05-28,,108
CDISC-TEST,AE,CDISC-TEST-017,270,273,HYPERTENSION,Hypertension,10020772,Hypertension,10020772,Vascular hypertensive disorders NEC,10020774,Vascular hypertensive disorders,10057166,Vascular disorders,10047065,Vascular disorders,10047065,MILD,N,,,RECOVERED/RESOLVED,N,,2019-06-20,,131
CDISC-TEST,AE,CDISC-TEST-017,271,263,HYPERTENSION,Hypertension,10020772,Hypertension,10020772,Vascular hypertensive disorders NEC,10020774,Vascular hypertensive disorders,10057166,Vascular disorders,10047065,Vascular disorders,10047065,MILD,N,,,RECOVERED/RESOLVED,N,,2019-07-06,,147
CDISC-TEST,AE,CDISC-TEST-017,272,260,HYPOGLYCAEMIA,Hypoglycaemia,10020993,Hypoglycaemia,10020993,Hypoglycaemic conditions NEC,10021001,Glucose metabolism disorders (incl diabetes mellitus),10018424,Metabolism and nutrition disorders,10027433,Metabolism and nutrition disorders,10027433,MILD,N,,,RECOVERED/RESOLVED,N,,2019-05-09,,89
CDISC-TEST,AE,CDISC-TEST-017,273,264,HYPOGLYCAEMIA,Hypoglycaemia,10020993,Hypoglycaemia,10020993,Hypoglycaemic conditions NEC,10021001,Glucose metabolism disorders (incl diabetes mellitus),10018424,Metabolism and nutrition disorders,10027433,Metabolism and nutrition disorders,10027433,MILD,N,,,RECOVERED/RESOLVED,N,,2019-08-08,,180
CDISC-TEST,AE,CDISC-TEST-017,274,272,NASOPHARYNGITIS,Nasopharyngitis,10028810,Nasopharyngitis,10028810,Upper respiratory tract infections,10046309,Infections - pathogen unspecified,10021879,Infections and infestations,10021881,Infections and infestations,10021881,MILD,N,,,RECOVERED/RESOLVED,N,,2019-07-01,,142
CDISC-TEST,AE,CDISC-TEST-017,275,261,PNEUMONIA,Pneumonia,10035664,Pneumonia,10035664,Lower respiratory tract and lung infections,10025101,Infections - pathogen unspecified,10021879,Infections and infestations,10021881,Infections and infestations,10021881,MILD,N,,,RECOVERED/RESOLVED,N,,2019-04-07,,57
CDISC-TEST,AE,CDISC-TEST-017,276,270,PNEUMONIA,Pneumonia,10035664,Pneumonia,10035664,Lower respiratory tract and lung infections,10025101,Infections - pathogen unspecified,10021879,Infections and infestations,10021881,Infections and infestations,10021881,MODERATE,N,,,RECOVERED/RESOLVED,Y,,2019-05-11,,91
CDISC-TEST,AE,CDISC-TEST-017,277,278,URINARY TRACT INFECTION,Urinary tract infection,10046571,Urinary tract infection,10046571,Urinary tract infections,10046577,Infections - pathogen unspecified,10021879,Infections and infestations,10021881,Infections and infestations,10021881,MILD,N,,,RECOVERED/RESOLVED,N,,2019-04-08,,58
CDISC-TEST,AE,CDISC-TEST-017,278,269,URINARY TRACT INFECTION,Urinary tract infection,10046571,Urinary tract infection,10046571,Urinary tract infections,10046577,Infections - pathogen unspecified,10021879,Infections and infestations,10021881,Infections and infestations,10021881,MILD,N,,,RECOVERED/RESOLVED,N,,2019-05-03,,83
CDISC-TEST,AE,CDISC-TEST-017,279,262,URINARY TRACT INFECTION,Urinary tract infection,10046571,Urinary tract infection,10046571,Urinary tract infections,10046577,Infections - pathogen unspecified,10021879,Infections and infestations,10021881,Infections and infestations,10021881,MILD,N,,,RECOVERED/RESOLVED,N,,2019-05-08,,88
CDISC-TEST,AE,CDISC-TEST-018,280,289,BACK PAIN,Back pain,10003988,Back pain,10003988,Musculoskeletal and connective tissue pain and discomfort,10068757,Musculoskeletal and connective tissue disorders NEC,10028393,Musculoskeletal and connective tissue disorders,10028395,Musculoskeletal and connective tissue disorders,10028395,MILD,N,,,RECOVERED/RESOLVED,N,,2019-04-10,,39
CDISC-TEST,AE,CDISC-TEST-018,281,291,HEADACHE,Headache,10019211,Headache,10019211,Headaches NEC,10019233,Headaches,10019231,Nervous system disorders,10029205,Nervous system disorders,10029205,MILD,N,,,RECOVERED/RESOLVED,N,,2019-03-22,,20
CDISC-TEST,AE,CDISC-TEST-018,282,290,HEADACHE,Headache,10019211,Headache,10019211,Headaches NEC,10019233,Headaches,10019231,Nervous system disorders,10029205,Nervous system disorders,10029205,MILD,N,,,RECOVERED/RESOLVED,N,,2019-04-30,,59
CDISC-TEST,AE,CDISC-TEST-018,283,292,HEADACHE,Headache,10019211,Headache,10019211,Headaches NEC,10019233,Headaches,10019231,Nervous system disorders,10029205,Nervous system disorders,10029205,MILD,N,,,RECOVERED/RESOLVED,N,,2019-05-08,,67
CDISC-TEST,AE,CDISC-TEST-018,284,285,HEADACHE,Headache,10019211,Headache,10019211,Headaches NEC,10019233,Headaches,10019231,Nervous system disorders,10029205,Nervous system disorders,10029205,MILD,N,,,RECOVERED/RESOLVED,N,,2019-07-17,,137
CDISC-TEST,AE,CDISC-TEST-018,285,284,HEADACHE,Headache,10019211,Headache,10019211,Headaches NEC,10019233,Headaches,10019231,Nervous system disorders,10029205,Nervous system disorders,10029205,MILD,N,,,RECOVERED/RESOLVED,N,,2019-08-20,,171
CDISC-TEST,AE,CDISC-TEST-018,286,287,HYPERTENSION,Hypertension,10020772,Hypertension,10020772,Vascular hypertensive disorders NEC,10020774,Vascular hypertensive disorders,10057166,Vascular disorders,10047065,Vascular disorders,10047065,MILD,N,,,RECOVERED/RESOLVED,N,,2019-06-20,,110
CDISC-TEST,AE,CDISC-TEST-018,287,288,HYPERTENSION,Hypertension,10020772,Hypertension,10020772,Vascular hypertensive disorders NEC,10020774,Vascular hypertensive disorders,10057166,Vascular disorders,10047065,Vascular disorders,10047065,MILD,N,,,RECOVERED/RESOLVED,N,,2019-07-08,,128
CDISC-TEST,AE,CDISC-TEST-018,288,281,HYPERTENSION,Hypertension,10020772,Hypertension,10020772,Vascular hypertensive disorders NEC,10020774,Vascular hypertensive disorders,10057166,Vascular disorders,10047065,Vascular disorders,10047065,MILD,N,,,RECOVERED/RESOLVED,N,,2019-07-20,,140
CDISC-TEST,AE,CDISC-TEST-018,289,286,HYPERTENSION,Hypertension,10020772,Hypertension,10020772,Vascular hypertensive disorders NEC,10020774,Vascular hypertensive disorders,10057166,Vascular disorders,10047065,Vascular disorders,10047065,MILD,N,,,RECOVERED/RESOLVED,N,,2019-08-04,,155
CDISC-TEST,AE,CDISC-TEST-018,290,280,HYPOGLYCAEMIA,Hypoglycaemia,10020993,Hypoglycaemia,10020993,Hypoglycaemic conditions NEC,10021001,Glucose metabolism disorders (incl diabetes mellitus),10018424,Metabolism and nutrition disorders,10027433,Metabolism and nutrition disorders,10027433,MILD,N,,,RECOVERED/RESOLVED,N,,2019-07-25,,145
CDISC-TEST,AE,CDISC-TEST-018,291,283,HYPOGLYCAEMIA,Hypoglycaemia,10020993,Hypoglycaemia,10020993,Hypoglycaemic conditions NEC,10021001,Glucose metabolism disorders (incl diabetes mellitus),10018424,Metabolism and nutrition disorders,10027433,Metabolism and nutrition disorders,10027433,MILD,N,,,RECOVERED/RESOLVED,N,,2019-08-15,,166
CDISC-TEST,AE,CDISC-TEST-018,292,282,URINARY TRACT INFECTION,Urinary tract infection,10046571,Urinary tract infection,10046571,Urinary tract infections,10046577,Infections - pathogen unspecified,10021879,Infections and infestations,10021881,Infections and infestations,10021881,MILD,N,,,RECOVERED/RESOLVED,N,,2019-07-11,,131
CDISC-TEST,AE,CDISC-TEST-019,293,300,UPSET STOMACH,Upset stomach,10046318,Abdominal discomfort,10000059,Gastrointestinal signs and symptoms NEC,10027678,Gastrointestinal signs and symptoms,10018012,Gastrointestinal disorders,10017947,Gastrointestinal disorders,10017947,MILD,N,,,RECOVERED/RESOLVED,N,,2019-07-16,,131
CDISC-TEST,AE,CDISC-TEST-019,294,304,BACK PAIN,Back pain,10003988,Back pain,10003988,Musculoskeletal and connective tissue pain and discomfort,10068757,Musculoskeletal and connective tissue disorders NEC,10028393,Musculoskeletal and connective tissue disorders,10028395,Musculoskeletal and connective tissue disorders,10028395,MODERATE,N,,,RECOVERED/RESOLVED,N,,2019-04-03,,27
CDISC-TEST,AE,CDISC-TEST-019,295,295,BRONCHITIS,Bronchitis,10006451,Bronchitis,10006451,Lower respiratory tract and lung infections,10025101,Infections - pathogen unspecified,10021879,Infections and infestations,10021881,Infections and infestations,10021881,MILD,N,,,RECOVERED/RESOLVED,N,,2019-08-03,,149
CDISC-TEST,AE,CDISC-TEST-019,296,305,DIARRHOEA,Diarrhoea,10012735,Diarrhoea,10012735,Diarrhoea (excl infective),10012736,Gastrointestinal motility and defaecation conditions,10017977,Gastrointestinal disorders,10017947,Gastrointestinal disorders,10017947,MILD,N,,,RECOVERED/RESOLVED,N,,2019-05-03,,57
CDISC-TEST,AE,CDISC-TEST-019,297,294,HEADACHE,Headache,10019211,Headache,10019211,Headaches NEC,10019233,Headaches,10019231,Nervous system disorders,10029205,Nervous system disorders,10029205,MILD,N,,,RECOVERED/RESOLVED,N,,2019-06-24,,109
CDISC-TEST,AE,CDISC-TEST-019,298,297,HEADACHE,Headache,10019211,Headache,10019211,Headaches NEC,10019233,Headaches,10019231,Nervous system disorders,10029205,Nervous system disorders,10029205,MILD,N,,,RECOVERED/RESOLVED,N,,2019-08-11,,157
CDISC-TEST,AE,CDISC-TEST-019,299,301,HYPERTENSION,Hypertension,10020772,Hypertension,10020772,Vascular hypertensive disorders NEC,10020774,Vascular hypertensive disorders,10057166,Vascular disorders,10047065,Vascular disorders,10047065,MILD,N,,,RECOVERED/RESOLVED,N,,2019-06-09,,94
CDISC-TEST,AE,CDISC-TEST-019,300,298,HYPERTENSION,Hypertension,10020772,Hypertension,10020772,Vascular hypertensive disorders NEC,10020774,Vascular hypertensive disorders,10057166,Vascular disorders,10047065,Vascular disorders,10047065,MODERATE,N,,,RECOVERED/RESOLVED,N,,2019-06-13,,98
CDISC-TEST,AE,CDISC-TEST-019,301,307,HYPERTENSION,Hypertension,10020772,Hypertension,10020772,Vascular hypertensive disorders NEC,10020774,Vascular hypertensive disorders,10057166,Vascular disorders,10047065,Vascular disorders,10047065,MILD,N,,,RECOVERED/RESOLVED,N,,2019-07-06,,121
CDISC-TEST,AE,CDISC-TEST-019,302,308,HYPOGLYCAEMIA,Hypoglycaemia,10020993,Hypoglycaemia,10020993,Hypoglycaemic conditions NEC,10021001,Glucose metabolism disorders (incl diabetes mellitus),10018424,Metabolism and nutrition disorders,10027433,Metabolism and nutrition disorders,10027433,MILD,N,,,RECOVERED/RESOLVED,N,,2019-03-08,,1
CDISC-TEST,AE,CDISC-TEST-019,303,296,HYPOGLYCAEMIA,Hypoglycaemia,10020993,Hypoglycaemia,10020993,Hypoglycaemic conditions NEC,10021001,Glucose metabolism disorders (incl diabetes mellitus),10018424,Metabolism and nutrition disorders,10027433,Metabolism and nutrition disorders,10027433,MILD,N,,,RECOVERED/RESOLVED,N,,2019-06-25,,110
CDISC-TEST,AE,CDISC-TEST-019,304,299,HYPOGLYCAEMIA,Hypoglycaemia,10020993,Hypoglycaemia,10020993,Hypoglycaemic conditions NEC,10021001,Glucose metabolism disorders (incl diabetes mellitus),10018424,Metabolism and nutrition disorders,10027433,Metabolism and nutrition disorders,10027433,MILD,N,,,RECOVERED/RESOLVED,N,,2019-07-04,,119
CDISC-TEST,AE,CDISC-TEST-019,305,303,HYPOGLYCAEMIC UNCONSCIOUSNESS,Hypoglycaemic unconsciousness,10065981,Hypoglycaemic unconsciousness,10065981,Disturbances in consciousness NEC,10013509,Neurological disorders NEC,10029305,Nervous system disorders,10029205,Nervous system disorders,10029205,MILD,N,,,RECOVERED/RESOLVED,N,,2019-05-16,,70
CDISC-TEST,AE,CDISC-TEST-019,306,293,HYPOGLYCAEMIC UNCONSCIOUSNESS,Hypoglycaemic unconsciousness,10065981,Hypoglycaemic unconsciousness,10065981,Disturbances in consciousness NEC,10013509,Neurological disorders NEC,10029305,Nervous system disorders,10029205,Nervous system disorders,10029205,MILD,N,,,RECOVERED/RESOLVED,N,,2019-07-21,,136
CDISC-TEST,AE,CDISC-TEST-019,307,302,NASOPHARYNGITIS,Nasopharyngitis,10028810,Nasopharyngitis,10028810,Upper respiratory tract infections,10046309,Infections - pathogen unspecified,10021879,Infections and infestations,10021881,Infections and infestations,10021881,MILD,N,,,RECOVERED/RESOLVED,N,,2019-06-07,,92
CDISC-TEST,AE,CDISC-TEST-019,308,306,URINARY TRACT INFECTION,Urinary tract infection,10046571,Urinary tract infection,10046571,Urinary tract infections,10046577,Infections - pathogen unspecified,10021879,Infections and infestations,10021881,Infections and infestations,10021881,MILD,N,,,RECOVERED/RESOLVED,N,,2019-04-16,,40
CDISC-TEST,AE,CDISC-TEST-020,309,310,UPSET STOMACH,Upset stomach,10046318,Abdominal discomfort,10000059,Gastrointestinal signs and symptoms NEC,10027678,Gastrointestinal signs and symptoms,10018012,Gastrointestinal disorders,10017947,Gastrointestinal disorders,10017947,MODERATE,N,,,RECOVERED/RESOLVED,N,,2019-05-14,,116
CDISC-TEST,AE,CDISC-TEST-020,310,327,BRONCHITIS,Bronchitis,10006451,Bronchitis,10006451,Lower respiratory tract and lung infections,10025101,Infections - pathogen unspecified,10021879,Infections and infestations,10021881,Infections and infestations,10021881,MODERATE,N,,,RECOVERED/RESOLVED,N,,2019-02-24,,37
CDISC-TEST,AE,CDISC-TEST-020,311,321,HEADACHE,Headache,10019211,Headache,10019211,Headaches NEC,10019233,Headaches,10019231,Nervous system disorders,10029205,Nervous system disorders,10029205,MILD,N,,,RECOVERED/RESOLVED,N,,2019-02-19,,32
CDISC-TEST,AE,CDISC-TEST-020,312,312,HEADACHE,Headache,10019211,Headache,10019211,Headaches NEC,10019233,Headaches,10019231,Nervous system disorders,10029205,Nervous system disorders,10029205,MILD,N,,,RECOVERED/RESOLVED,N,,2019-05-10,,112
CDISC-TEST,AE,CDISC-TEST-020,313,326,HYPERTENSION,Hypertension,10020772,Hypertension,10020772,Vascular hypertensive disorders NEC,10020774,Vascular hypertensive disorders,10057166,Vascular disorders,10047065,Vascular disorders,10047065,MILD,N,,,RECOVERED/RESOLVED,N,,2019-01-29,,11
CDISC-TEST,AE,CDISC-TEST-020,314,322,HYPERTENSION,Hypertension,10020772,Hypertension,10020772,Vascular hypertensive disorders NEC,10020774,Vascular hypertensive disorders,10057166,Vascular disorders,10047065,Vascular disorders,10047065,MILD,N,,,RECOVERED/RESOLVED,N,,2019-03-06,,47
CDISC-TEST,AE,CDISC-TEST-020,315,317,HYPERTENSION,Hypertension,10020772,Hypertension,10020772,Vascular hypertensive disorders NEC,10020774,Vascular hypertensive disorders,10057166,Vascular disorders,10047065,Vascular disorders,10047065,MILD,N,,,RECOVERED/RESOLVED,N,,2019-04-17,,89
CDISC-TEST,AE,CDISC-TEST-020,316,319,HYPERTENSION,Hypertension,10020772,Hypertension,10020772,Vascular hypertensive disorders NEC,10020774,Vascular hypertensive disorders,10057166,Vascular disorders,10047065,Vascular disorders,10047065,MILD,N,,,RECOVERED/RESOLVED,N,,2019-07-09,,172
CDISC-TEST,AE,CDISC-TEST-020,317,318,HYPOGLYCAEMIA,Hypoglycaemia,10020993,Hypoglycaemia,10020993,Hypoglycaemic conditions NEC,10021001,Glucose metabolism disorders (incl diabetes mellitus),10018424,Metabolism and nutrition disorders,10027433,Metabolism and nutrition disorders,10027433,MILD,N,,,RECOVERED/RESOLVED,N,,2019-01-19,,1
CDISC-TEST,AE,CDISC-TEST-020,318,324,HYPOGLYCAEMIA,Hypoglycaemia,10020993,Hypoglycaemia,10020993,Hypoglycaemic conditions NEC,10021001,Glucose metabolism disorders (incl diabetes mellitus),10018424,Metabolism and nutrition disorders,10027433,Metabolism and nutrition disorders,10027433,MILD,N,,,RECOVERED/RESOLVED,N,,2019-02-26,,39
CDISC-TEST,AE,CDISC-TEST-020,319,323,HYPOGLYCAEMIA,Hypoglycaemia,10020993,Hypoglycaemia,10020993,Hypoglycaemic conditions NEC,10021001,Glucose metabolism disorders (incl diabetes mellitus),10018424,Metabolism and nutrition disorders,10027433,Metabolism and nutrition disorders,10027433,MILD,N,,,RECOVERED/RESOLVED,N,,2019-03-05,,46
CDISC-TEST,AE,CDISC-TEST-020,320,325,HYPOGLYCAEMIA,Hypoglycaemia,10020993,Hypoglycaemia,10020993,Hypoglycaemic conditions NEC,10021001,Glucose metabolism disorders (incl diabetes mellitus),10018424,Metabolism and nutrition disorders,10027433,Metabolism and nutrition disorders,10027433,MILD,N,,,RECOVERED/RESOLVED,N,,2019-03-12,,53
CDISC-TEST,AE,CDISC-TEST-020,321,311,HYPOGLYCAEMIA,Hypoglycaemia,10020993,Hypoglycaemia,10020993,Hypoglycaemic conditions NEC,10021001,Glucose metabolism disorders (incl diabetes mellitus),10018424,Metabolism and nutrition disorders,10027433,Metabolism and nutrition disorders,10027433,MILD,N,,,RECOVERED/RESOLVED,N,,2019-03-30,,71
CDISC-TEST,AE,CDISC-TEST-020,322,316,HYPOGLYCAEMIA,Hypoglycaemia,10020993,Hypoglycaemia,10020993,Hypoglycaemic conditions NEC,10021001,Glucose metabolism disorders (incl diabetes mellitus),10018424,Metabolism and nutrition disorders,10027433,Metabolism and nutrition disorders,10027433,MILD,N,,,RECOVERED/RESOLVED,N,,2019-05-17,,119
CDISC-TEST,AE,CDISC-TEST-020,323,313,HYPOGLYCAEMIA,Hypoglycaemia,10020993,Hypoglycaemia,10020993,Hypoglycaemic conditions NEC,10021001,Glucose metabolism disorders (incl diabetes mellitus),10018424,Metabolism and nutrition disorders,10027433,Metabolism and nutrition disorders,10027433,MILD,N,,,RECOVERED/RESOLVED,N,,2019-07-06,,169
CDISC-TEST,AE,CDISC-TEST-020,324,320,NASOPHARYNGITIS,Nasopharyngitis,10028810,Nasopharyngitis,10028810,Upper respiratory tract infections,10046309,Infections - pathogen unspecified,10021879,Infections and infestations,10021881,Infections and infestations,10021881,MILD,N,,,RECOVERED/RESOLVED,N,,2019-04-16,,88
CDISC-TEST,AE,CDISC-TEST-020,325,309,NASOPHARYNGITIS,Nasopharyngitis,10028810,Nasopharyngitis,10028810,Upper respiratory tract infections,10046309,Infections - pathogen unspecified,10021879,Infections and infestations,10021881,Infections and infestations,10021881,MILD,N,,,RECOVERED/RESOLVED,N,,2019-06-07,,140
CDISC-TEST,AE,CDISC-TEST-020,326,328,POST PROCEDURAL MYOCARDIAL INFARCTION,Post procedural myocardial infarction,10066592,Post procedural myocardial infarction,10066592,Cardiac and vascular procedural complications,10007602,Procedural related injuries and complications NEC,10069888,"Injury, poisoning and procedural complications",10022117,"Injury, poisoning and procedural complications",10022117,SEVERE,Y,,,RECOVERING/RESOLVING,Y,,2019-04-20,,92
CDISC-TEST,AE,CDISC-TEST-020,327,315,URINARY TRACT INFECTION,Urinary tract infection,10046571,Urinary tract infection,10046571,Urinary tract infections,10046577,Infections - pathogen unspecified,10021879,Infections and infestations,10021881,Infections and infestations,10021881,MILD,N,,,RECOVERED/RESOLVED,N,,2019-04-05,,77
CDISC-TEST,AE,CDISC-TEST-020,328,314,URINARY TRACT INFECTION,Urinary tract infection,10046571,Urinary tract infection,10046571,Urinary tract infections,10046577,Infections - pathogen unspecified,10021879,Infections and infestations,10021881,Infections and infestations,10021881,MILD,N,,,RECOVERED/RESOLVED,N,,2019-07-07,,170
CDISC-TEST,AE,CDISC-TEST-021,329,331,BACK PAIN,Back pain,10003988,Back pain,10003988,Musculoskeletal and connective tissue pain and discomfort,10068757,Musculoskeletal and connective tissue disorders NEC,10028393,Musculoskeletal and connective tissue disorders,10028395,Musculoskeletal and connective tissue disorders,10028395,MODERATE,N,,,RECOVERED/RESOLVED,N,,2019-03-01,,43
CDISC-TEST,AE,CDISC-TEST-021,330,335,BACK PAIN,Back pain,10003988,Back pain,10003988,Musculoskeletal and connective tissue pain and discomfort,10068757,Musculoskeletal and connective tissue disorders NEC,10028393,Musculoskeletal and connective tissue disorders,10028395,Musculoskeletal and connective tissue disorders,10028395,MILD,N,,,RECOVERED/RESOLVED,N,,2019-05-01,,104
CDISC-TEST,AE,CDISC-TEST-021,331,329,DIARRHOEA,Diarrhoea,10012735,Diarrhoea,10012735,Diarrhoea (excl infective),10012736,Gastrointestinal motility and defaecation conditions,10017977,Gastrointestinal disorders,10017947,Gastrointestinal disorders,10017947,MODERATE,N,,,RECOVERED/RESOLVED,N,,2019-03-13,,55
CDISC-TEST,AE,CDISC-TEST-021,332,341,HEADACHE,Headache,10019211,Headache,10019211,Headaches NEC,10019233,Headaches,10019231,Nervous system disorders,10029205,Nervous system disorders,10029205,MILD,N,,,RECOVERED/RESOLVED,N,,2019-02-05,,19
CDISC-TEST,AE,CDISC-TEST-021,333,330,HEADACHE,Headache,10019211,Headache,10019211,Headaches NEC,10019233,Headaches,10019231,Nervous system disorders,10029205,Nervous system disorders,10029205,MILD,N,,,RECOVERED/RESOLVED,N,,2019-04-19,,92
CDISC-TEST,AE,CDISC-TEST-021,334,339,HEADACHE,Headache,10019211,Headache,10019211,Headaches NEC,10019233,Headaches,10019231,Nervous system disorders,10029205,Nervous system disorders,10029205,MILD,N,,,RECOVERED/RESOLVED,N,,2019-04-24,,97
CDISC-TEST,AE,CDISC-TEST-021,335,338,HEADACHE,Headache,10019211,Headache,10019211,Headaches NEC,10019233,Headaches,10019231,Nervous system disorders,10029205,Nervous system disorders,10029205,MILD,N,,,RECOVERED/RESOLVED,N,,2019-05-22,,125
CDISC-TEST,AE,CDISC-TEST-021,336,334,HEADACHE,Headache,10019211,Headache,10019211,Headaches NEC,10019233,Headaches,10019231,Nervous system disorders,10029205,Nervous system disorders,10029205,MILD,N,,,RECOVERED/RESOLVED,N,,2019-06-29,,163
CDISC-TEST,AE,CDISC-TEST-021,337,332,HEADACHE,Headache,10019211,Headache,10019211,Headaches NEC,10019233,Headaches,10019231,Nervous system disorders,10029205,Nervous system disorders,10029205,MILD,N,,,RECOVERED/RESOLVED,N,,2019-07-08,,172
CDISC-TEST,AE,CDISC-TEST-021,338,333,HYPERTENSION,Hypertension,10020772,Hypertension,10020772,Vascular hypertensive disorders NEC,10020774,Vascular hypertensive disorders,10057166,Vascular disorders,10047065,Vascular disorders,10047065,MILD,N,,,RECOVERED/RESOLVED,N,,2019-03-19,,61
CDISC-TEST,AE,CDISC-TEST-021,339,340,HYPERTENSION,Hypertension,10020772,Hypertension,10020772,Vascular hypertensive disorders NEC,10020774,Vascular hypertensive disorders,10057166,Vascular disorders,10047065,Vascular disorders,10047065,MILD,N,,,RECOVERED/RESOLVED,N,,2019-04-29,,102
CDISC-TEST,AE,CDISC-TEST-021,340,342,HYPERTENSION,Hypertension,10020772,Hypertension,10020772,Vascular hypertensive disorders NEC,10020774,Vascular hypertensive disorders,10057166,Vascular disorders,10047065,Vascular disorders,10047065,MILD,N,,,RECOVERED/RESOLVED,N,,2019-05-02,,105
CDISC-TEST,AE,CDISC-TEST-021,341,337,HYPOGLYCAEMIA,Hypoglycaemia,10020993,Hypoglycaemia,10020993,Hypoglycaemic conditions NEC,10021001,Glucose metabolism disorders (incl diabetes mellitus),10018424,Metabolism and nutrition disorders,10027433,Metabolism and nutrition disorders,10027433,MILD,N,,,RECOVERED/RESOLVED,N,,2019-02-24,,38
CDISC-TEST,AE,CDISC-TEST-021,342,336,HYPOGLYCAEMIC UNCONSCIOUSNESS,Hypoglycaemic unconsciousness,10065981,Hypoglycaemic unconsciousness,10065981,Disturbances in consciousness NEC,10013509,Neurological disorders NEC,10029305,Nervous system disorders,10029205,Nervous system disorders,10029205,MILD,N,,,RECOVERED/RESOLVED,N,,2019-05-22,,125
CDISC-TEST,AE,CDISC-TEST-022,343,357,UPSET STOMACH,Upset stomach,10046318,Abdominal discomfort,10000059,Gastrointestinal signs and symptoms NEC,10027678,Gastrointestinal signs and symptoms,10018012,Gastrointestinal disorders,10017947,Gastrointestinal disorders,10017947,MILD,N,,,RECOVERED/RESOLVED,N,,2019-04-02,,35
CDISC-TEST,AE,CDISC-TEST-022,344,344,UPSET STOMACH,Upset stomach,10046318,Abdominal discomfort,10000059,Gastrointestinal signs and symptoms NEC,10027678,Gastrointestinal signs and symptoms,10018012,Gastrointestinal disorders,10017947,Gastrointestinal disorders,10017947,MODERATE,N,,,RECOVERED/RESOLVED,N,,2019-08-13,,168
CDISC-TEST,AE,CDISC-TEST-022,345,343,BACK PAIN,Back pain,10003988,Back pain,10003988,Musculoskeletal and connective tissue pain and discomfort,10068757,Musculoskeletal and connective tissue disorders NEC,10028393,Musculoskeletal and connective tissue disorders,10028395,Musculoskeletal and connective tissue disorders,10028395,MILD,N,,,RECOVERED/RESOLVED,N,,2019-04-27,,60
CDISC-TEST,AE,CDISC-TEST-022,346,360,BACK PAIN,Back pain,10003988,Back pain,10003988,Musculoskeletal and connective tissue pain and discomfort,10068757,Musculoskeletal and connective tissue disorders NEC,10028393,Musculoskeletal and connective tissue disorders,10028395,Musculoskeletal and connective tissue disorders,10028395,MILD,N,,,RECOVERED/RESOLVED,N,,2019-06-23,,117
CDISC-TEST,AE,CDISC-TEST-022,347,345,BACK PAIN,Back pain,10003988,Back pain,10003988,Musculoskeletal and connective tissue pain and discomfort,10068757,Musculoskeletal and connective tissue disorders NEC,10028393,Musculoskeletal and connective tissue disorders,10028395,Musculoskeletal and connective tissue disorders,10028395,MILD,N,,,RECOVERED/RESOLVED,N,,2019-07-28,,152
CDISC-TEST,AE,CDISC-TEST-022,348,358,BRONCHITIS,Bronchitis,10006451,Bronchitis,10006451,Lower respiratory tract and lung infections,10025101,Infections - pathogen unspecified,10021879,Infections and infestations,10021881,Infections and infestations,10021881,MILD,N,,,RECOVERED/RESOLVED,N,,2019-03-27,,29
CDISC-TEST,AE,CDISC-TEST-022,349,349,BRONCHITIS,Bronchitis,10006451,Bronchitis,10006451,Lower respiratory tract and lung infections,10025101,Infections - pathogen unspecified,10021879,Infections and infestations,10021881,Infections and infestations,10021881,MILD,N,,,RECOVERED/RESOLVED,N,,2019-07-19,,143
CDISC-TEST,AE,CDISC-TEST-022,350,355,CHRONIC OBSTRUCTIVE PULMONARY DISEASE,Chronic obstructive pulmonary disease,10009033,Chronic obstructive pulmonary disease,10009033,Bronchospasm and obstruction,10006484,Bronchial disorders (excl neoplasms),10006436,"Respiratory, thoracic and mediastinal disorders",10038738,"Respiratory, thoracic and mediastinal disorders",10038738,MILD,N,,,RECOVERED/RESOLVED,N,,2019-04-15,,48
CDISC-TEST,AE,CDISC-TEST-022,351,348,HYPERTENSION,Hypertension,10020772,Hypertension,10020772,Vascular hypertensive disorders NEC,10020774,Vascular hypertensive disorders,10057166,Vascular disorders,10047065,Vascular disorders,10047065,MILD,N,,,RECOVERED/RESOLVED,N,,2019-07-02,,126
CDISC-TEST,AE,CDISC-TEST-022,352,350,HYPERTENSION,Hypertension,10020772,Hypertension,10020772,Vascular hypertensive disorders NEC,10020774,Vascular hypertensive disorders,10057166,Vascular disorders,10047065,Vascular disorders,10047065,MILD,N,,,RECOVERED/RESOLVED,N,,2019-08-01,,156
CDISC-TEST,AE,CDISC-TEST-022,353,353,HYPOGLYCAEMIA,Hypoglycaemia,10020993,Hypoglycaemia,10020993,Hypoglycaemic conditions NEC,10021001,Glucose metabolism disorders (incl diabetes mellitus),10018424,Metabolism and nutrition disorders,10027433,Metabolism and nutrition disorders,10027433,MILD,N,,,RECOVERED/RESOLVED,N,,2019-04-21,,54
CDISC-TEST,AE,CDISC-TEST-022,354,359,HYPOGLYCAEMIA,Hypoglycaemia,10020993,Hypoglycaemia,10020993,Hypoglycaemic conditions NEC,10021001,Glucose metabolism disorders (incl diabetes mellitus),10018424,Metabolism and nutrition disorders,10027433,Metabolism and nutrition disorders,10027433,MILD,N,,,RECOVERED/RESOLVED,N,,2019-05-01,,64
CDISC-TEST,AE,CDISC-TEST-022,355,346,HYPOGLYCAEMIA,Hypoglycaemia,10020993,Hypoglycaemia,10020993,Hypoglycaemic conditions NEC,10021001,Glucose metabolism disorders (incl diabetes mellitus),10018424,Metabolism and nutrition disorders,10027433,Metabolism and nutrition disorders,10027433,MILD,N,,,RECOVERED/RESOLVED,N,,2019-06-18,,112
CDISC-TEST,AE,CDISC-TEST-022,356,351,HYPOGLYCAEMIA,Hypoglycaemia,10020993,Hypoglycaemia,10020993,Hypoglycaemic conditions NEC,10021001,Glucose metabolism disorders (incl diabetes mellitus),10018424,Metabolism and nutrition disorders,10027433,Metabolism and nutrition disorders,10027433,MILD,N,,,RECOVERED/RESOLVED,N,,2019-06-24,,118
CDISC-TEST,AE,CDISC-TEST-022,357,352,HYPOGLYCAEMIA,Hypoglycaemia,10020993,Hypoglycaemia,10020993,Hypoglycaemic conditions NEC,10021001,Glucose metabolism disorders (incl diabetes mellitus),10018424,Metabolism and nutrition disorders,10027433,Metabolism and nutrition disorders,10027433,MILD,N,,,RECOVERED/RESOLVED,N,,2019-07-24,,148
CDISC-TEST,AE,CDISC-TEST-022,358,347,HYPOGLYCAEMIA,Hypoglycaemia,10020993,Hypoglycaemia,10020993,Hypoglycaemic conditions NEC,10021001,Glucose metabolism disorders (incl diabetes mellitus),10018424,Metabolism and nutrition disorders,10027433,Metabolism and nutrition disorders,10027433,MILD,N,,,RECOVERED/RESOLVED,N,,2019-08-23,,178
CDISC-TEST,AE,CDISC-TEST-022,359,356,NASOPHARYNGITIS,Nasopharyngitis,10028810,Nasopharyngitis,10028810,Upper respiratory tract infections,10046309,Infections - pathogen unspecified,10021879,Infections and infestations,10021881,Infections and infestations,10021881,MILD,N,,,RECOVERED/RESOLVED,N,,2019-04-21,,54
CDISC-TEST,AE,CDISC-TEST-022,360,354,PNEUMONIA,Pneumonia,10035664,Pneumonia,10035664,Lower respiratory tract and lung infections,10025101,Infections - pathogen unspecified,10021879,Infections and infestations,10021881,Infections and infestations,10021881,MILD,N,,,RECOVERED/RESOLVED,N,,2019-06-14,,108
CDISC-TEST,AE,CDISC-TEST-023,361,364,UPSET STOMACH,Upset stomach,10046318,Abdominal discomfort,10000059,Gastrointestinal signs and symptoms NEC,10027678,Gastrointestinal signs and symptoms,10018012,Gastrointestinal disorders,10017947,Gastrointestinal disorders,10017947,MILD,N,,,RECOVERED/RESOLVED,N,,2019-07-07,,116
CDISC-TEST,AE,CDISC-TEST-023,362,363,UPSET STOMACH,Upset stomach,10046318,Abdominal discomfort,10000059,Gastrointestinal signs and symptoms NEC,10027678,Gastrointestinal signs and symptoms,10018012,Gastrointestinal disorders,10017947,Gastrointestinal disorders,10017947,MODERATE,N,,,RECOVERED/RESOLVED,N,,2019-08-16,,156
CDISC-TEST,AE,CDISC-TEST-023,363,365,BACK PAIN,Back pain,10003988,Back pain,10003988,Musculoskeletal and connective tissue pain and discomfort,10068757,Musculoskeletal and connective tissue disorders NEC,10028393,Musculoskeletal and connective tissue disorders,10028395,Musculoskeletal and connective tissue disorders,10028395,MILD,N,,,RECOVERED/RESOLVED,N,,2019-06-15,,94
CDISC-TEST,AE,CDISC-TEST-023,364,367,BRONCHITIS,Bronchitis,10006451,Bronchitis,10006451,Lower respiratory tract and lung infections,10025101,Infections - pathogen unspecified,10021879,Infections and infestations,10021881,Infections and infestations,10021881,MILD,N,,,RECOVERED/RESOLVED,N,,2019-06-01,,80
CDISC-TEST,AE,CDISC-TEST-023,365,370,HEADACHE,Headache,10019211,Headache,10019211,Headaches NEC,10019233,Headaches,10019231,Nervous system disorders,10029205,Nervous system disorders,10029205,MILD,N,,,RECOVERED/RESOLVED,N,,2019-05-06,,54
CDISC-TEST,AE,CDISC-TEST-023,366,362,HEADACHE,Headache,10019211,Headache,10019211,Headaches NEC,10019233,Headaches,10019231,Nervous system disorders,10029205,Nervous system disorders,10029205,MILD,N,,,RECOVERED/RESOLVED,N,,2019-07-03,,112
CDISC-TEST,AE,CDISC-TEST-023,367,366,HEADACHE,Headache,10019211,Headache,10019211,Headaches NEC,10019233,Headaches,10019231,Nervous system disorders,10029205,Nervous system disorders,10029205,MILD,N,,,RECOVERED/RESOLVED,N,,2019-07-21,,130
CDISC-TEST,AE,CDISC-TEST-023,368,369,HEADACHE,Headache,10019211,Headache,10019211,Headaches NEC,10019233,Headaches,10019231,Nervous system disorders,10029205,Nervous system disorders,10029205,MILD,N,,,RECOVERED/RESOLVED,N,,2019-08-01,,141
CDISC-TEST,AE,CDISC-TEST-023,369,372,HYPOGLYCAEMIA,Hypoglycaemia,10020993,Hypoglycaemia,10020993,Hypoglycaemic conditions NEC,10021001,Glucose metabolism disorders (incl diabetes mellitus),10018424,Metabolism and nutrition disorders,10027433,Metabolism and nutrition disorders,10027433,MILD,N,,,RECOVERED/RESOLVED,N,,2019-07-30,,139
CDISC-TEST,AE,CDISC-TEST-023,370,368,NASOPHARYNGITIS,Nasopharyngitis,10028810,Nasopharyngitis,10028810,Upper respiratory tract infections,10046309,Infections - pathogen unspecified,10021879,Infections and infestations,10021881,Infections and infestations,10021881,MILD,N,,,RECOVERED/RESOLVED,N,,2019-08-30,,170
CDISC-TEST,AE,CDISC-TEST-023,371,371,URINARY TRACT INFECTION,Urinary tract infection,10046571,Urinary tract infection,10046571,Urinary tract infections,10046577,Infections - pathogen unspecified,10021879,Infections and infestations,10021881,Infections and infestations,10021881,MILD,N,,,RECOVERED/RESOLVED,N,,2019-05-19,,67
CDISC-TEST,AE,CDISC-TEST-023,372,361,URINARY TRACT INFECTION,Urinary tract infection,10046571,Urinary tract infection,10046571,Urinary tract infections,10046577,Infections - pathogen unspecified,10021879,Infections and infestations,10021881,Infections and infestations,10021881,MILD,N,,,RECOVERED/RESOLVED,N,,2019-06-20,,99
CDISC-TEST,AE,CDISC-TEST-024,373,378,UPSET STOMACH,Upset stomach,10046318,Abdominal discomfort,10000059,Gastrointestinal signs and symptoms NEC,10027678,Gastrointestinal signs and symptoms,10018012,Gastrointestinal disorders,10017947,Gastrointestinal disorders,10017947,MILD,N,,,RECOVERED/RESOLVED,N,,2019-06-15,,129
CDISC-TEST,AE,CDISC-TEST-024,374,380,CHRONIC OBSTRUCTIVE PULMONARY DISEASE,Chronic obstructive pulmonary disease,10009033,Chronic obstructive pulmonary disease,10009033,Bronchospasm and obstruction,10006484,Bronchial disorders (excl neoplasms),10006436,"Respiratory, thoracic and mediastinal disorders",10038738,"Respiratory, thoracic and mediastinal disorders",10038738,MILD,N,,,RECOVERED/RESOLVED,N,,2019-04-21,,74
CDISC-TEST,AE,CDISC-TEST-024,375,385,HEADACHE,Headache,10019211,Headache,10019211,Headaches NEC,10019233,Headaches,10019231,Nervous system disorders,10029205,Nervous system disorders,10029205,MILD,N,,,RECOVERED/RESOLVED,N,,2019-02-10,,4
CDISC-TEST,AE,CDISC-TEST-024,376,381,HEADACHE,Headache,10019211,Headache,10019211,Headaches NEC,10019233,Headaches,10019231,Nervous system disorders,10029205,Nervous system disorders,10029205,MILD,N,,,RECOVERED/RESOLVED,N,,2019-02-23,,17
CDISC-TEST,AE,CDISC-TEST-024,377,377,HEADACHE,Headache,10019211,Headache,10019211,Headaches NEC,10019233,Headaches,10019231,Nervous system disorders,10029205,Nervous system disorders,10029205,MILD,N,,,RECOVERED/RESOLVED,N,,2019-04-18,,71
CDISC-TEST,AE,CDISC-TEST-024,378,387,HEADACHE,Headache,10019211,Headache,10019211,Headaches NEC,10019233,Headaches,10019231,Nervous system disorders,10029205,Nervous system disorders,10029205,MILD,N,,,RECOVERED/RESOLVED,N,,2019-06-26,,140
CDISC-TEST,AE,CDISC-TEST-024,379,384,HYPERTENSION,Hypertension,10020772,Hypertension,10020772,Vascular hypertensive disorders NEC,10020774,Vascular hypertensive disorders,10057166,Vascular disorders,10047065,Vascular disorders,10047065,MILD,N,,,RECOVERED/RESOLVED,N,,2019-04-06,,59
CDISC-TEST,AE,CDISC-TEST-024,380,379,HYPERTENSION,Hypertension,10020772,Hypertension,10020772,Vascular hypertensive disorders NEC,10020774,Vascular hypertensive disorders,10057166,Vascular disorders,10047065,Vascular disorders,10047065,MILD,N,,,RECOVERED/RESOLVED,N,,2019-05-20,,103
CDISC-TEST,AE,CDISC-TEST-024,381,374,HYPERTENSION,Hypertension,10020772,Hypertension,10020772,Vascular hypertensive disorders NEC,10020774,Vascular hypertensive disorders,10057166,Vascular disorders,10047065,Vascular disorders,10047065,MILD,N,,,RECOVERED/RESOLVED,N,,2019-07-28,,172
CDISC-TEST,AE,CDISC-TEST-024,382,383,HYPOGLYCAEMIA,Hypoglycaemia,10020993,Hypoglycaemia,10020993,Hypoglycaemic conditions NEC,10021001,Glucose metabolism disorders (incl diabetes mellitus),10018424,Metabolism and nutrition disorders,10027433,Metabolism and nutrition disorders,10027433,MILD,N,,,RECOVERED/RESOLVED,N,,2019-03-22,,44
CDISC-TEST,AE,CDISC-TEST-024,383,375,HYPOGLYCAEMIA,Hypoglycaemia,10020993,Hypoglycaemia,10020993,Hypoglycaemic conditions NEC,10021001,Glucose metabolism disorders (incl diabetes mellitus),10018424,Metabolism and nutrition disorders,10027433,Metabolism and nutrition disorders,10027433,MILD,N,,,RECOVERED/RESOLVED,N,,2019-03-24,,46
CDISC-TEST,AE,CDISC-TEST-024,384,373,HYPOGLYCAEMIA,Hypoglycaemia,10020993,Hypoglycaemia,10020993,Hypoglycaemic conditions NEC,10021001,Glucose metabolism disorders (incl diabetes mellitus),10018424,Metabolism and nutrition disorders,10027433,Metabolism and nutrition disorders,10027433,MILD,N,,,RECOVERED/RESOLVED,N,,2019-05-04,,87
CDISC-TEST,AE,CDISC-TEST-024,385,376,HYPOGLYCAEMIA,Hypoglycaemia,10020993,Hypoglycaemia,10020993,Hypoglycaemic conditions NEC,10021001,Glucose metabolism disorders (incl diabetes mellitus),10018424,Metabolism and nutrition disorders,10027433,Metabolism and nutrition disorders,10027433,MILD,N,,,RECOVERED/RESOLVED,N,,2019-07-12,,156
CDISC-TEST,AE,CDISC-TEST-024,386,386,NASOPHARYNGITIS,Nasopharyngitis,10028810,Nasopharyngitis,10028810,Upper respiratory tract infections,10046309,Infections - pathogen unspecified,10021879,Infections and infestations,10021881,Infections and infestations,10021881,MILD,N,,,RECOVERED/RESOLVED,N,,2019-03-02,,24
CDISC-TEST,AE,CDISC-TEST-024,387,382,NASOPHARYNGITIS,Nasopharyngitis,10028810,Nasopharyngitis,10028810,Upper respiratory tract infections,10046309,Infections - pathogen unspecified,10021879,Infections and infestations,10021881,Infections and infestations,10021881,MILD,N,,,RECOVERED/RESOLVED,N,,2019-06-09,,123
CDISC-TEST,AE,CDISC-TEST-025,388,402,BRONCHITIS,Bronchitis,10006451,Bronchitis,10006451,Lower respiratory tract and lung infections,10025101,Infections - pathogen unspecified,10021879,Infections and infestations,10021881,Infections and infestations,10021881,MILD,N,,,RECOVERED/RESOLVED,N,,2019-02-12,,4
CDISC-TEST,AE,CDISC-TEST-025,389,393,BRONCHITIS,Bronchitis,10006451,Bronchitis,10006451,Lower respiratory tract and lung infections,10025101,Infections - pathogen unspecified,10021879,Infections and infestations,10021881,Infections and infestations,10021881,MILD,N,,,RECOVERED/RESOLVED,N,,2019-07-02,,144
CDISC-TEST,AE,CDISC-TEST-025,390,388,CHRONIC OBSTRUCTIVE PULMONARY DISEASE,Chronic obstructive pulmonary disease,10009033,Chronic obstructive pulmonary disease,10009033,Bronchospasm and obstruction,10006484,Bronchial disorders (excl neoplasms),10006436,"Respiratory, thoracic and mediastinal disorders",10038738,"Respiratory, thoracic and mediastinal disorders",10038738,MILD,N,,,RECOVERED/RESOLVED,N,,2019-07-19,,161
CDISC-TEST,AE,CDISC-TEST-025,391,403,HEADACHE,Headache,10019211,Headache,10019211,Headaches NEC,10019233,Headaches,10019231,Nervous system disorders,10029205,Nervous system disorders,10029205,MILD,N,,,RECOVERED/RESOLVED,N,,2019-02-17,,9
CDISC-TEST,AE,CDISC-TEST-025,392,401,HEADACHE,Headache,10019211,Headache,10019211,Headaches NEC,10019233,Headaches,10019231,Nervous system disorders,10029205,Nervous system disorders,10029205,MILD,N,,,RECOVERED/RESOLVED,N,,2019-03-06,,26
CDISC-TEST,AE,CDISC-TEST-025,393,405,HEADACHE,Headache,10019211,Headache,10019211,Headaches NEC,10019233,Headaches,10019231,Nervous system disorders,10029205,Nervous system disorders,10029205,MILD,N,,,RECOVERED/RESOLVED,N,,2019-03-15,,35
CDISC-TEST,AE,CDISC-TEST-025,394,399,HEADACHE,Headache,10019211,Headache,10019211,Headaches NEC,10019233,Headaches,10019231,Nervous system disorders,10029205,Nervous system disorders,10029205,MILD,N,,,RECOVERED/RESOLVED,N,,2019-04-14,,65
CDISC-TEST,AE,CDISC-TEST-025,395,400,HEADACHE,Headache,10019211,Headache,10019211,Headaches NEC,10019233,Headaches,10019231,Nervous system disorders,10029205,Nervous system disorders,10029205,MILD,N,,,RECOVERED/RESOLVED,N,,2019-04-27,,78
CDISC-TEST,AE,CDISC-TEST-025,396,389,HEADACHE,Headache,10019211,Headache,10019211,Headaches NEC,10019233,Headaches,10019231,Nervous system disorders,10029205,Nervous system disorders,10029205,MILD,N,,,RECOVERED/RESOLVED,N,,2019-05-07,,88
CDISC-TEST,AE,CDISC-TEST-025,397,390,HEADACHE,Headache,10019211,Headache,10019211,Headaches NEC,10019233,Headaches,10019231,Nervous system disorders,10029205,Nervous system disorders,10029205,MILD,N,,,RECOVERED/RESOLVED,N,,2019-05-09,,90
CDISC-TEST,AE,CDISC-TEST-025,398,395,HEADACHE,Headache,10019211,Headache,10019211,Headaches NEC,10019233,Headaches,10019231,Nervous system disorders,10029205,Nervous system disorders,10029205,MILD,N,,,RECOVERED/RESOLVED,N,,2019-05-19,,100
CDISC-TEST,AE,CDISC-TEST-025,399,397,HEADACHE,Headache,10019211,Headache,10019211,Headaches NEC,10019233,Headaches,10019231,Nervous system disorders,10029205,Nervous system disorders,10029205,MILD,N,,,RECOVERED/RESOLVED,N,,2019-06-29,,141
CDISC-TEST,AE,CDISC-TEST-025,400,404,HYPERTENSION,Hypertension,10020772,Hypertension,10020772,Vascular hypertensive disorders NEC,10020774,Vascular hypertensive disorders,10057166,Vascular disorders,10047065,Vascular disorders,10047065,MILD,N,,,RECOVERED/RESOLVED,N,,2019-04-05,,56
CDISC-TEST,AE,CDISC-TEST-025,401,391,HYPERTENSION,Hypertension,10020772,Hypertension,10020772,Vascular hypertensive disorders NEC,10020774,Vascular hypertensive disorders,10057166,Vascular disorders,10047065,Vascular disorders,10047065,MILD,N,,,RECOVERED/RESOLVED,N,,2019-07-18,,160
CDISC-TEST,AE,CDISC-TEST-025,402,398,HYPOGLYCAEMIA,Hypoglycaemia,10020993,Hypoglycaemia,10020993,Hypoglycaemic conditions NEC,10021001,Glucose metabolism disorders (incl diabetes mellitus),10018424,Metabolism and nutrition disorders,10027433,Metabolism and nutrition disorders,10027433,MILD,N,,,RECOVERED/RESOLVED,N,,2019-03-27,,47
CDISC-TEST,AE,CDISC-TEST-025,403,394,HYPOGLYCAEMIA,Hypoglycaemia,10020993,Hypoglycaemia,10020993,Hypoglycaemic conditions NEC,10021001,Glucose metabolism disorders (incl diabetes mellitus),10018424,Metabolism and nutrition disorders,10027433,Metabolism and nutrition disorders,10027433,MODERATE,N,,,RECOVERED/RESOLVED,N,,2019-05-20,,101
CDISC-TEST,AE,CDISC-TEST-025,404,406,MYOCARDIAL INFARCTION,Myocardial infarction,10028596,Myocardial infarction,10028596,Ischaemic coronary artery disorders,10011085,Coronary artery disorders,10011082,Cardiac disorders,10007541,Cardiac disorders,10007541,SEVERE,Y,,,RECOVERING/RESOLVING,Y,,2019-05-03,,84
CDISC-TEST,AE,CDISC-TEST-025,405,392,NASOPHARYNGITIS,Nasopharyngitis,10028810,Nasopharyngitis,10028810,Upper respiratory tract infections,10046309,Infections - pathogen unspecified,10021879,Infections and infestations,10021881,Infections and infestations,10021881,MILD,N,,,RECOVERED/RESOLVED,N,,2019-06-25,,137
CDISC-TEST,AE,CDISC-TEST-025,406,396,URINARY TRACT INFECTION,Urinary tract infection,10046571,Urinary tract infection,10046571,Urinary tract infections,10046577,Infections - pathogen unspecified,10021879,Infections and infestations,10021881,Infections and infestations,10021881,MILD,N,,,RECOVERED/RESOLVED,N,,2019-05-04,,85
CDISC-TEST,AE,CDISC-TEST-026,407,417,UPSET STOMACH,Upset stomach,10046318,Abdominal discomfort,10000059,Gastrointestinal signs and symptoms NEC,10027678,Gastrointestinal signs and symptoms,10018012,Gastrointestinal disorders,10017947,Gastrointestinal disorders,10017947,MODERATE,N,,,RECOVERED/RESOLVED,N,,2019-01-29,,5
CDISC-TEST,AE,CDISC-TEST-026,408,415,UPSET STOMACH,Upset stomach,10046318,Abdominal discomfort,10000059,Gastrointestinal signs and symptoms NEC,10027678,Gastrointestinal signs and symptoms,10018012,Gastrointestinal disorders,10017947,Gastrointestinal disorders,10017947,MILD,N,,,RECOVERED/RESOLVED,N,,2019-02-13,,20
CDISC-TEST,AE,CDISC-TEST-026,409,407,BRONCHITIS,Bronchitis,10006451,Bronchitis,10006451,Lower respiratory tract and lung infections,10025101,Infections - pathogen unspecified,10021879,Infections and infestations,10021881,Infections and infestations,10021881,MILD,N,,,RECOVERED/RESOLVED,N,,2019-04-09,,75
CDISC-TEST,AE,CDISC-TEST-026,410,414,HEADACHE,Headache,10019211,Headache,10019211,Headaches NEC,10019233,Headaches,10019231,Nervous system disorders,10029205,Nervous system disorders,10029205,MILD,N,,,RECOVERED/RESOLVED,N,,2019-03-01,,36
CDISC-TEST,AE,CDISC-TEST-026,411,412,HEADACHE,Headache,10019211,Headache,10019211,Headaches NEC,10019233,Headaches,10019231,Nervous system disorders,10029205,Nervous system disorders,10029205,MILD,N,,,RECOVERED/RESOLVED,N,,2019-04-01,,67
CDISC-TEST,AE,CDISC-TEST-026,412,411,HEADACHE,Headache,10019211,Headache,10019211,Headaches NEC,10019233,Headaches,10019231,Nervous system disorders,10029205,Nervous system disorders,10029205,MILD,N,,,RECOVERED/RESOLVED,N,,2019-05-15,,111
CDISC-TEST,AE,CDISC-TEST-026,413,409,HEADACHE,Headache,10019211,Headache,10019211,Headaches NEC,10019233,Headaches,10019231,Nervous system disorders,10029205,Nervous system disorders,10029205,MODERATE,N,,,RECOVERED/RESOLVED,N,,2019-06-15,,142
CDISC-TEST,AE,CDISC-TEST-026,414,416,HYPERTENSION,Hypertension,10020772,Hypertension,10020772,Vascular hypertensive disorders NEC,10020774,Vascular hypertensive disorders,10057166,Vascular disorders,10047065,Vascular disorders,10047065,MILD,N,,,RECOVERED/RESOLVED,N,,2019-02-02,,9
CDISC-TEST,AE,CDISC-TEST-026,415,408,HYPOGLYCAEMIA,Hypoglycaemia,10020993,Hypoglycaemia,10020993,Hypoglycaemic conditions NEC,10021001,Glucose metabolism disorders (incl diabetes mellitus),10018424,Metabolism and nutrition disorders,10027433,Metabolism and nutrition disorders,10027433,MILD,N,,,RECOVERED/RESOLVED,N,,2019-05-11,,107
CDISC-TEST,AE,CDISC-TEST-026,416,410,HYPOGLYCAEMIA,Hypoglycaemia,10020993,Hypoglycaemia,10020993,Hypoglycaemic conditions NEC,10021001,Glucose metabolism disorders (incl diabetes mellitus),10018424,Metabolism and nutrition disorders,10027433,Metabolism and nutrition disorders,10027433,MILD,N,,,RECOVERED/RESOLVED,N,,2019-05-25,,121
CDISC-TEST,AE,CDISC-TEST-026,417,413,NASOPHARYNGITIS,Nasopharyngitis,10028810,Nasopharyngitis,10028810,Upper respiratory tract infections,10046309,Infections - pathogen unspecified,10021879,Infections and infestations,10021881,Infections and infestations,10021881,MILD,N,,,RECOVERED/RESOLVED,N,,2019-03-10,,45
CDISC-TEST,AE,CDISC-TEST-026,418,418,PNEUMONIA,Pneumonia,10035664,Pneumonia,10035664,Lower respiratory tract and lung infections,10025101,Infections - pathogen unspecified,10021879,Infections and infestations,10021881,Infections and infestations,10021881,MILD,N,,,RECOVERED/RESOLVED,N,,2019-03-31,,66
CDISC-TEST,AE,CDISC-TEST-027,419,421,DIARRHOEA,Diarrhoea,10012735,Diarrhoea,10012735,Diarrhoea (excl infective),10012736,Gastrointestinal motility and defaecation conditions,10017977,Gastrointestinal disorders,10017947,Gastrointestinal disorders,10017947,MILD,N,,,RECOVERED/RESOLVED,N,,2019-04-11,,72
CDISC-TEST,AE,CDISC-TEST-027,420,427,HEADACHE,Headache,10019211,Headache,10019211,Headaches NEC,10019233,Headaches,10019231,Nervous system disorders,10029205,Nervous system disorders,10029205,MILD,N,,,RECOVERED/RESOLVED,N,,2019-02-15,,17
CDISC-TEST,AE,CDISC-TEST-027,421,428,HEADACHE,Headache,10019211,Headache,10019211,Headaches NEC,10019233,Headaches,10019231,Nervous system disorders,10029205,Nervous system disorders,10029205,MILD,N,,,RECOVERED/RESOLVED,N,,2019-04-30,,91
CDISC-TEST,AE,CDISC-TEST-027,422,423,HEADACHE,Headache,10019211,Headache,10019211,Headaches NEC,10019233,Headaches,10019231,Nervous system disorders,10029205,Nervous system disorders,10029205,MILD,N,,,RECOVERED/RESOLVED,N,,2019-05-30,,121
CDISC-TEST,AE,CDISC-TEST-027,423,425,HEADACHE,Headache,10019211,Headache,10019211,Headaches NEC,10019233,Headaches,10019231,Nervous system disorders,10029205,Nervous system disorders,10029205,MODERATE,N,,,RECOVERED/RESOLVED,N,,2019-06-13,,135
CDISC-TEST,AE,CDISC-TEST-027,424,419,HEADACHE,Headache,10019211,Headache,10019211,Headaches NEC,10019233,Headaches,10019231,Nervous system disorders,10029205,Nervous system disorders,10029205,MODERATE,N,,,RECOVERED/RESOLVED,N,,2019-07-18,,170
CDISC-TEST,AE,CDISC-TEST-027,425,437,HYPERTENSION,Hypertension,10020772,Hypertension,10020772,Vascular hypertensive disorders NEC,10020774,Vascular hypertensive disorders,10057166,Vascular disorders,10047065,Vascular disorders,10047065,MILD,N,,,RECOVERED/RESOLVED,N,,2019-01-30,,1
CDISC-TEST,AE,CDISC-TEST-027,426,435,HYPERTENSION,Hypertension,10020772,Hypertension,10020772,Vascular hypertensive disorders NEC,10020774,Vascular hypertensive disorders,10057166,Vascular disorders,10047065,Vascular disorders,10047065,MILD,N,,,RECOVERED/RESOLVED,N,,2019-02-03,,5
CDISC-TEST,AE,CDISC-TEST-027,427,433,HYPERTENSION,Hypertension,10020772,Hypertension,10020772,Vascular hypertensive disorders NEC,10020774,Vascular hypertensive disorders,10057166,Vascular disorders,10047065,Vascular disorders,10047065,MILD,N,,,RECOVERED/RESOLVED,N,,2019-02-10,,12
CDISC-TEST,AE,CDISC-TEST-027,428,432,HYPERTENSION,Hypertension,10020772,Hypertension,10020772,Vascular hypertensive disorders NEC,10020774,Vascular hypertensive disorders,10057166,Vascular disorders,10047065,Vascular disorders,10047065,MILD,N,,,RECOVERED/RESOLVED,N,,2019-02-18,,20
CDISC-TEST,AE,CDISC-TEST-027,429,422,HYPERTENSION,Hypertension,10020772,Hypertension,10020772,Vascular hypertensive disorders NEC,10020774,Vascular hypertensive disorders,10057166,Vascular disorders,10047065,Vascular disorders,10047065,MODERATE,N,,,RECOVERED/RESOLVED,N,,2019-05-21,,112
CDISC-TEST,AE,CDISC-TEST-027,430,429,HYPERTENSION,Hypertension,10020772,Hypertension,10020772,Vascular hypertensive disorders NEC,10020774,Vascular hypertensive disorders,10057166,Vascular disorders,10047065,Vascular disorders,10047065,MILD,N,,,RECOVERED/RESOLVED,N,,2019-07-15,,167
CDISC-TEST,AE,CDISC-TEST-027,431,431,HYPOGLYCAEMIA,Hypoglycaemia,10020993,Hypoglycaemia,10020993,Hypoglycaemic conditions NEC,10021001,Glucose metabolism disorders (incl diabetes mellitus),10018424,Metabolism and nutrition disorders,10027433,Metabolism and nutrition disorders,10027433,MILD,N,,,RECOVERED/RESOLVED,N,,2019-02-27,,29
CDISC-TEST,AE,CDISC-TEST-027,432,430,HYPOGLYCAEMIA,Hypoglycaemia,10020993,Hypoglycaemia,10020993,Hypoglycaemic conditions NEC,10021001,Glucose metabolism disorders (incl diabetes mellitus),10018424,Metabolism and nutrition disorders,10027433,Metabolism and nutrition disorders,10027433,MILD,N,,,RECOVERED/RESOLVED,N,,2019-04-09,,70
CDISC-TEST,AE,CDISC-TEST-027,433,420,HYPOGLYCAEMIA,Hypoglycaemia,10020993,Hypoglycaemia,10020993,Hypoglycaemic conditions NEC,10021001,Glucose metabolism disorders (incl diabetes mellitus),10018424,Metabolism and nutrition disorders,10027433,Metabolism and nutrition disorders,10027433,MILD,N,,,RECOVERED/RESOLVED,N,,2019-04-23,,84
CDISC-TEST,AE,CDISC-TEST-027,434,426,HYPOGLYCAEMIA,Hypoglycaemia,10020993,Hypoglycaemia,10020993,Hypoglycaemic conditions NEC,10021001,Glucose metabolism disorders (incl diabetes mellitus),10018424,Metabolism and nutrition disorders,10027433,Metabolism and nutrition disorders,10027433,MILD,N,,,RECOVERED/RESOLVED,N,,2019-05-24,,115
CDISC-TEST,AE,CDISC-TEST-027,435,434,NASOPHARYNGITIS,Nasopharyngitis,10028810,Nasopharyngitis,10028810,Upper respiratory tract infections,10046309,Infections - pathogen unspecified,10021879,Infections and infestations,10021881,Infections and infestations,10021881,MILD,N,,,RECOVERED/RESOLVED,N,,2019-04-09,,70
CDISC-TEST,AE,CDISC-TEST-027,436,424,NASOPHARYNGITIS,Nasopharyngitis,10028810,Nasopharyngitis,10028810,Upper respiratory tract infections,10046309,Infections - pathogen unspecified,10021879,Infections and infestations,10021881,Infections and infestations,10021881,MILD,N,,,RECOVERED/RESOLVED,N,,2019-06-19,,141
CDISC-TEST,AE,CDISC-TEST-027,437,436,NASOPHARYNGITIS,Nasopharyngitis,10028810,Nasopharyngitis,10028810,Upper respiratory tract infections,10046309,Infections - pathogen unspecified,10021879,Infections and infestations,10021881,Infections and infestations,10021881,MILD,N,,,RECOVERED/RESOLVED,N,,2019-07-10,,162
CDISC-TEST,AE,CDISC-TEST-028,438,443,UPSET STOMACH,Upset stomach,10046318,Abdominal discomfort,10000059,Gastrointestinal signs and symptoms NEC,10027678,Gastrointestinal signs and symptoms,10018012,Gastrointestinal disorders,10017947,Gastrointestinal disorders,10017947,MILD,N,,,RECOVERED/RESOLVED,N,,2019-05-29,,83
CDISC-TEST,AE,CDISC-TEST-028,439,441,UPSET STOMACH,Upset stomach,10046318,Abdominal discomfort,10000059,Gastrointestinal signs and symptoms NEC,10027678,Gastrointestinal signs and symptoms,10018012,Gastrointestinal disorders,10017947,Gastrointestinal disorders,10017947,MILD,N,,,RECOVERED/RESOLVED,N,,2019-08-23,,169
CDISC-TEST,AE,CDISC-TEST-028,440,449,BRONCHITIS,Bronchitis,10006451,Bronchitis,10006451,Lower respiratory tract and lung infections,10025101,Infections - pathogen unspecified,10021879,Infections and infestations,10021881,Infections and infestations,10021881,MILD,N,,,RECOVERED/RESOLVED,N,,2019-03-29,,22
CDISC-TEST,AE,CDISC-TEST-028,441,440,DIARRHOEA,Diarrhoea,10012735,Diarrhoea,10012735,Diarrhoea (excl infective),10012736,Gastrointestinal motility and defaecation conditions,10017977,Gastrointestinal disorders,10017947,Gastrointestinal disorders,10017947,MILD,N,,,RECOVERED/RESOLVED,N,,2019-05-28,,82
CDISC-TEST,AE,CDISC-TEST-028,442,438,DIARRHOEA,Diarrhoea,10012735,Diarrhoea,10012735,Diarrhoea (excl infective),10012736,Gastrointestinal motility and defaecation conditions,10017977,Gastrointestinal disorders,10017947,Gastrointestinal disorders,10017947,MILD,N,,,RECOVERED/RESOLVED,N,,2019-08-28,,174
CDISC-TEST,AE,CDISC-TEST-028,443,447,HEADACHE,Headache,10019211,Headache,10019211,Headaches NEC,10019233,Headaches,10019231,Nervous system disorders,10029205,Nervous system disorders,10029205,MILD,N,,,RECOVERED/RESOLVED,N,,2019-04-17,,41
CDISC-TEST,AE,CDISC-TEST-028,444,445,HEADACHE,Headache,10019211,Headache,10019211,Headaches NEC,10019233,Headaches,10019231,Nervous system disorders,10029205,Nervous system disorders,10029205,MILD,N,,,RECOVERED/RESOLVED,N,,2019-04-23,,47
CDISC-TEST,AE,CDISC-TEST-028,445,444,HEADACHE,Headache,10019211,Headache,10019211,Headaches NEC,10019233,Headaches,10019231,Nervous system disorders,10029205,Nervous system disorders,10029205,MILD,N,,,RECOVERED/RESOLVED,N,,2019-05-24,,78
CDISC-TEST,AE,CDISC-TEST-028,446,451,HYPOGLYCAEMIA,Hypoglycaemia,10020993,Hypoglycaemia,10020993,Hypoglycaemic conditions NEC,10021001,Glucose metabolism disorders (incl diabetes mellitus),10018424,Metabolism and nutrition disorders,10027433,Metabolism and nutrition disorders,10027433,MILD,N,,,RECOVERED/RESOLVED,N,,2019-03-12,,5
CDISC-TEST,AE,CDISC-TEST-028,447,448,HYPOGLYCAEMIA,Hypoglycaemia,10020993,Hypoglycaemia,10020993,Hypoglycaemic conditions NEC,10021001,Glucose metabolism disorders (incl diabetes mellitus),10018424,Metabolism and nutrition disorders,10027433,Metabolism and nutrition disorders,10027433,MILD,N,,,RECOVERED/RESOLVED,N,,2019-04-11,,35
CDISC-TEST,AE,CDISC-TEST-028,448,446,HYPOGLYCAEMIA,Hypoglycaemia,10020993,Hypoglycaemia,10020993,Hypoglycaemic conditions NEC,10021001,Glucose metabolism disorders (incl diabetes mellitus),10018424,Metabolism and nutrition disorders,10027433,Metabolism and nutrition disorders,10027433,MILD,N,,,RECOVERED/RESOLVED,N,,2019-04-21,,45
CDISC-TEST,AE,CDISC-TEST-028,449,439,HYPOGLYCAEMIA,Hypoglycaemia,10020993,Hypoglycaemia,10020993,Hypoglycaemic conditions NEC,10021001,Glucose metabolism disorders (incl diabetes mellitus),10018424,Metabolism and nutrition disorders,10027433,Metabolism and nutrition disorders,10027433,MILD,N,,,RECOVERED/RESOLVED,N,,2019-06-29,,114
CDISC-TEST,AE,CDISC-TEST-028,450,442,HYPOGLYCAEMIA,Hypoglycaemia,10020993,Hypoglycaemia,10020993,Hypoglycaemic conditions NEC,10021001,Glucose metabolism disorders (incl diabetes mellitus),10018424,Metabolism and nutrition disorders,10027433,Metabolism and nutrition disorders,10027433,MILD,N,,,RECOVERED/RESOLVED,N,,2019-07-24,,139
CDISC-TEST,AE,CDISC-TEST-028,451,450,NASOPHARYNGITIS,Nasopharyngitis,10028810,Nasopharyngitis,10028810,Upper respiratory tract infections,10046309,Infections - pathogen unspecified,10021879,Infections and infestations,10021881,Infections and infestations,10021881,MILD,N,,,RECOVERED/RESOLVED,N,,2019-04-30,,54
CDISC-TEST,AE,CDISC-TEST-029,452,466,BACK PAIN,Back pain,10003988,Back pain,10003988,Musculoskeletal and connective tissue pain and discomfort,10068757,Musculoskeletal and connective tissue disorders NEC,10028393,Musculoskeletal and connective tissue disorders,10028395,Musculoskeletal and connective tissue disorders,10028395,MILD,N,,,RECOVERED/RESOLVED,N,,2019-02-11,,22
CDISC-TEST,AE,CDISC-TEST-029,453,462,HEADACHE,Headache,10019211,Headache,10019211,Headaches NEC,10019233,Headaches,10019231,Nervous system disorders,10029205,Nervous system disorders,10029205,MILD,N,,,RECOVERED/RESOLVED,N,,2019-03-11,,50
CDISC-TEST,AE,CDISC-TEST-029,454,461,HEADACHE,Headache,10019211,Headache,10019211,Headaches NEC,10019233,Headaches,10019231,Nervous system disorders,10029205,Nervous system disorders,10029205,MILD,N,,,RECOVERED/RESOLVED,N,,2019-03-15,,54
CDISC-TEST,AE,CDISC-TEST-029,455,453,HEADACHE,Headache,10019211,Headache,10019211,Headaches NEC,10019233,Headaches,10019231,Nervous system disorders,10029205,Nervous system disorders,10029205,MILD,N,,,RECOVERED/RESOLVED,N,,2019-03-26,,65
CDISC-TEST,AE,CDISC-TEST-029,456,467,HEADACHE,Headache,10019211,Headache,10019211,Headaches NEC,10019233,Headaches,10019231,Nervous system disorders,10029205,Nervous system disorders,10029205,MILD,N,,,RECOVERED/RESOLVED,N,,2019-06-29,,160
CDISC-TEST,AE,CDISC-TEST-029,457,454,HEADACHE,Headache,10019211,Headache,10019211,Headaches NEC,10019233,Headaches,10019231,Nervous system disorders,10029205,Nervous system disorders,10029205,MILD,N,,,RECOVERED/RESOLVED,N,,2019-06-30,,161
CDISC-TEST,AE,CDISC-TEST-029,458,465,HYPERTENSION,Hypertension,10020772,Hypertension,10020772,Vascular hypertensive disorders NEC,10020774,Vascular hypertensive disorders,10057166,Vascular disorders,10047065,Vascular disorders,10047065,MILD,N,,,RECOVERED/RESOLVED,N,,2019-02-17,,28
CDISC-TEST,AE,CDISC-TEST-029,459,458,HYPERTENSION,Hypertension,10020772,Hypertension,10020772,Vascular hypertensive disorders NEC,10020774,Vascular hypertensive disorders,10057166,Vascular disorders,10047065,Vascular disorders,10047065,MILD,N,,,RECOVERED/RESOLVED,N,,2019-02-28,,39
CDISC-TEST,AE,CDISC-TEST-029,460,456,HYPERTENSION,Hypertension,10020772,Hypertension,10020772,Vascular hypertensive disorders NEC,10020774,Vascular hypertensive disorders,10057166,Vascular disorders,10047065,Vascular disorders,10047065,MILD,N,,,RECOVERED/RESOLVED,N,,2019-03-01,,40
CDISC-TEST,AE,CDISC-TEST-029,461,471,HYPOGLYCAEMIA,Hypoglycaemia,10020993,Hypoglycaemia,10020993,Hypoglycaemic conditions NEC,10021001,Glucose metabolism disorders (incl diabetes mellitus),10018424,Metabolism and nutrition disorders,10027433,Metabolism and nutrition disorders,10027433,MILD,N,,,RECOVERED/RESOLVED,N,,2019-01-29,,9
CDISC-TEST,AE,CDISC-TEST-029,462,469,HYPOGLYCAEMIA,Hypoglycaemia,10020993,Hypoglycaemia,10020993,Hypoglycaemic conditions NEC,10021001,Glucose metabolism disorders (incl diabetes mellitus),10018424,Metabolism and nutrition disorders,10027433,Metabolism and nutrition disorders,10027433,MILD,N,,,RECOVERED/RESOLVED,N,,2019-02-01,,12
CDISC-TEST,AE,CDISC-TEST-029,463,457,HYPOGLYCAEMIA,Hypoglycaemia,10020993,Hypoglycaemia,10020993,Hypoglycaemic conditions NEC,10021001,Glucose metabolism disorders (incl diabetes mellitus),10018424,Metabolism and nutrition disorders,10027433,Metabolism and nutrition disorders,10027433,MILD,N,,,RECOVERED/RESOLVED,N,,2019-02-18,,29
CDISC-TEST,AE,CDISC-TEST-029,464,463,HYPOGLYCAEMIA,Hypoglycaemia,10020993,Hypoglycaemia,10020993,Hypoglycaemic conditions NEC,10021001,Glucose metabolism disorders (incl diabetes mellitus),10018424,Metabolism and nutrition disorders,10027433,Metabolism and nutrition disorders,10027433,MILD,N,,,RECOVERED/RESOLVED,N,,2019-03-07,,46
CDISC-TEST,AE,CDISC-TEST-029,465,460,HYPOGLYCAEMIA,Hypoglycaemia,10020993,Hypoglycaemia,10020993,Hypoglycaemic conditions NEC,10021001,Glucose metabolism disorders (incl diabetes mellitus),10018424,Metabolism and nutrition disorders,10027433,Metabolism and nutrition disorders,10027433,MILD,N,,,RECOVERED/RESOLVED,N,,2019-03-30,,69
CDISC-TEST,AE,CDISC-TEST-029,466,459,HYPOGLYCAEMIA,Hypoglycaemia,10020993,Hypoglycaemia,10020993,Hypoglycaemic conditions NEC,10021001,Glucose metabolism disorders (incl diabetes mellitus),10018424,Metabolism and nutrition disorders,10027433,Metabolism and nutrition disorders,10027433,MILD,N,,,RECOVERED/RESOLVED,N,,2019-05-17,,117
CDISC-TEST,AE,CDISC-TEST-029,467,470,HYPOGLYCAEMIA,Hypoglycaemia,10020993,Hypoglycaemia,10020993,Hypoglycaemic conditions NEC,10021001,Glucose metabolism disorders (incl diabetes mellitus),10018424,Metabolism and nutrition disorders,10027433,Metabolism and nutrition disorders,10027433,MILD,N,,,RECOVERED/RESOLVED,N,,2019-05-19,,119
CDISC-TEST,AE,CDISC-TEST-029,468,455,HYPOGLYCAEMIA,Hypoglycaemia,10020993,Hypoglycaemia,10020993,Hypoglycaemic conditions NEC,10021001,Glucose metabolism disorders (incl diabetes mellitus),10018424,Metabolism and nutrition disorders,10027433,Metabolism and nutrition disorders,10027433,MILD,N,,,RECOVERED/RESOLVED,N,,2019-07-05,,166
CDISC-TEST,AE,CDISC-TEST-029,469,464,HYPOGLYCAEMIC UNCONSCIOUSNESS,Hypoglycaemic unconsciousness,10065981,Hypoglycaemic unconsciousness,10065981,Disturbances in consciousness NEC,10013509,Neurological disorders NEC,10029305,Nervous system disorders,10029205,Nervous system disorders,10029205,MILD,N,,,RECOVERED/RESOLVED,N,,2019-01-27,,7
CDISC-TEST,AE,CDISC-TEST-029,470,468,URINARY TRACT INFECTION,Urinary tract infection,10046571,Urinary tract infection,10046571,Urinary tract infections,10046577,Infections - pathogen unspecified,10021879,Infections and infestations,10021881,Infections and infestations,10021881,MILD,N,,,RECOVERED/RESOLVED,N,,2019-02-08,,19
CDISC-TEST,AE,CDISC-TEST-029,471,452,URINARY TRACT INFECTION,Urinary tract infection,10046571,Urinary tract infection,10046571,Urinary tract infections,10046577,Infections - pathogen unspecified,10021879,Infections and infestations,10021881,Infections and infestations,10021881,MILD,N,,,RECOVERED/RESOLVED,N,,2019-05-31,,131
CDISC-TEST,AE,CDISC-TEST-030,472,479,UPSET STOMACH,Upset stomach,10046318,Abdominal discomfort,10000059,Gastrointestinal signs and symptoms NEC,10027678,Gastrointestinal signs and symptoms,10018012,Gastrointestinal disorders,10017947,Gastrointestinal disorders,10017947,MILD,N,,,RECOVERED/RESOLVED,N,,2019-05-02,,92
CDISC-TEST,AE,CDISC-TEST-030,473,486,UPSET STOMACH,Upset stomach,10046318,Abdominal discomfort,10000059,Gastrointestinal signs and symptoms NEC,10027678,Gastrointestinal signs and symptoms,10018012,Gastrointestinal disorders,10017947,Gastrointestinal disorders,10017947,MILD,N,,,RECOVERED/RESOLVED,N,,2019-06-13,,134
CDISC-TEST,AE,CDISC-TEST-030,474,475,HEADACHE,Headache,10019211,Headache,10019211,Headaches NEC,10019233,Headaches,10019231,Nervous system disorders,10029205,Nervous system disorders,10029205,MILD,N,,,RECOVERED/RESOLVED,N,,2019-06-05,,126
CDISC-TEST,AE,CDISC-TEST-030,475,483,HYPERTENSION,Hypertension,10020772,Hypertension,10020772,Vascular hypertensive disorders NEC,10020774,Vascular hypertensive disorders,10057166,Vascular disorders,10047065,Vascular disorders,10047065,MILD,N,,,RECOVERED/RESOLVED,N,,2019-03-03,,32
CDISC-TEST,AE,CDISC-TEST-030,476,478,HYPERTENSION,Hypertension,10020772,Hypertension,10020772,Vascular hypertensive disorders NEC,10020774,Vascular hypertensive disorders,10057166,Vascular disorders,10047065,Vascular disorders,10047065,MILD,N,,,RECOVERED/RESOLVED,N,,2019-05-08,,98
CDISC-TEST,AE,CDISC-TEST-030,477,476,HYPERTENSION,Hypertension,10020772,Hypertension,10020772,Vascular hypertensive disorders NEC,10020774,Vascular hypertensive disorders,10057166,Vascular disorders,10047065,Vascular disorders,10047065,MILD,N,,,RECOVERED/RESOLVED,N,,2019-07-13,,164
CDISC-TEST,AE,CDISC-TEST-030,478,482,HYPERTENSION,Hypertension,10020772,Hypertension,10020772,Vascular hypertensive disorders NEC,10020774,Vascular hypertensive disorders,10057166,Vascular disorders,10047065,Vascular disorders,10047065,MILD,N,,,RECOVERED/RESOLVED,N,,2019-07-20,,171
CDISC-TEST,AE,CDISC-TEST-030,479,481,HYPOGLYCAEMIA,Hypoglycaemia,10020993,Hypoglycaemia,10020993,Hypoglycaemic conditions NEC,10021001,Glucose metabolism disorders (incl diabetes mellitus),10018424,Metabolism and nutrition disorders,10027433,Metabolism and nutrition disorders,10027433,MILD,N,,,RECOVERED/RESOLVED,N,,2019-03-20,,49
CDISC-TEST,AE,CDISC-TEST-030,480,485,HYPOGLYCAEMIA,Hypoglycaemia,10020993,Hypoglycaemia,10020993,Hypoglycaemic conditions NEC,10021001,Glucose metabolism disorders (incl diabetes mellitus),10018424,Metabolism and nutrition disorders,10027433,Metabolism and nutrition disorders,10027433,MODERATE,N,,,RECOVERED/RESOLVED,N,,2019-04-04,,64
CDISC-TEST,AE,CDISC-TEST-030,481,474,HYPOGLYCAEMIA,Hypoglycaemia,10020993,Hypoglycaemia,10020993,Hypoglycaemic conditions NEC,10021001,Glucose metabolism disorders (incl diabetes mellitus),10018424,Metabolism and nutrition disorders,10027433,Metabolism and nutrition disorders,10027433,MODERATE,N,,,RECOVERED/RESOLVED,N,,2019-04-15,,75
CDISC-TEST,AE,CDISC-TEST-030,482,477,HYPOGLYCAEMIA,Hypoglycaemia,10020993,Hypoglycaemia,10020993,Hypoglycaemic conditions NEC,10021001,Glucose metabolism disorders (incl diabetes mellitus),10018424,Metabolism and nutrition disorders,10027433,Metabolism and nutrition disorders,10027433,MILD,N,,,RECOVERED/RESOLVED,N,,2019-06-03,,124
CDISC-TEST,AE,CDISC-TEST-030,483,472,HYPOGLYCAEMIA,Hypoglycaemia,10020993,Hypoglycaemia,10020993,Hypoglycaemic conditions NEC,10021001,Glucose metabolism disorders (incl diabetes mellitus),10018424,Metabolism and nutrition disorders,10027433,Metabolism and nutrition disorders,10027433,MILD,N,,,RECOVERED/RESOLVED,N,,2019-07-29,,180
CDISC-TEST,AE,CDISC-TEST-030,484,473,HYPOGLYCAEMIC UNCONSCIOUSNESS,Hypoglycaemic unconsciousness,10065981,Hypoglycaemic unconsciousness,10065981,Disturbances in consciousness NEC,10013509,Neurological disorders NEC,10029305,Nervous system disorders,10029205,Nervous system disorders,10029205,MILD,N,,,RECOVERED/RESOLVED,N,,2019-06-26,,147
CDISC-TEST,AE,CDISC-TEST-030,485,487,ISCHAEMIC STROKE,Ischaemic stroke,10061256,Ischaemic stroke,10061256,Central nervous system haemorrhages and cerebrovascular accidents,10007948,Central nervous system vascular disorders,10007963,Nervous system disorders,10029205,Nervous system disorders,10029205,SEVERE,Y,,,NOT RECOVERED/NOT RESOLVED,Y,,2019-07-18,,169
CDISC-TEST,AE,CDISC-TEST-030,486,484,NASOPHARYNGITIS,Nasopharyngitis,10028810,Nasopharyngitis,10028810,Upper respiratory tract infections,10046309,Infections - pathogen unspecified,10021879,Infections and infestations,10021881,Infections and infestations,10021881,MILD,N,,,RECOVERED/RESOLVED,N,,2019-04-05,,65
CDISC-TEST,AE,CDISC-TEST-030,487,488,NASOPHARYNGITIS,Nasopharyngitis,10028810,Nasopharyngitis,10028810,Upper respiratory tract infections,10046309,Infections - pathogen unspecified,10021879,Infections and infestations,10021881,Infections and infestations,10021881,MILD,N,,,RECOVERED/RESOLVED,N,,2019-05-16,,106
CDISC-TEST,AE,CDISC-TEST-030,488,480,URINARY TRACT INFECTION,Urinary tract infection,10046571,Urinary tract infection,10046571,Urinary tract infections,10046577,Infections - pathogen unspecified,10021879,Infections and infestations,10021881,Infections and infestations,10021881,MILD,N,,,RECOVERED/RESOLVED,N,,2019-04-27,,87
CDISC-TEST,AE,CDISC-TEST-031,489,493,DIARRHOEA,Diarrhoea,10012735,Diarrhoea,10012735,Diarrhoea (excl infective),10012736,Gastrointestinal motility and defaecation conditions,10017977,Gastrointestinal disorders,10017947,Gastrointestinal disorders,10017947,MILD,N,,,RECOVERED/RESOLVED,N,,2019-02-12,,19
CDISC-TEST,AE,CDISC-TEST-031,490,500,DIARRHOEA,Diarrhoea,10012735,Diarrhoea,10012735,Diarrhoea (excl infective),10012736,Gastrointestinal motility and defaecation conditions,10017977,Gastrointestinal disorders,10017947,Gastrointestinal disorders,10017947,MILD,N,,,RECOVERED/RESOLVED,N,,2019-05-30,,126
CDISC-TEST,AE,CDISC-TEST-031,491,497,DIARRHOEA,Diarrhoea,10012735,Diarrhoea,10012735,Diarrhoea (excl infective),10012736,Gastrointestinal motility and defaecation conditions,10017977,Gastrointestinal disorders,10017947,Gastrointestinal disorders,10017947,MILD,N,,,RECOVERED/RESOLVED,N,,2019-07-03,,160
CDISC-TEST,AE,CDISC-TEST-031,492,492,HEADACHE,Headache,10019211,Headache,10019211,Headaches NEC,10019233,Headaches,10019231,Nervous system disorders,10029205,Nervous system disorders,10029205,MILD,N,,,RECOVERED/RESOLVED,N,,2019-02-13,,20
CDISC-TEST,AE,CDISC-TEST-031,493,490,HEADACHE,Headache,10019211,Headache,10019211,Headaches NEC,10019233,Headaches,10019231,Nervous system disorders,10029205,Nervous system disorders,10029205,MILD,N,,,RECOVERED/RESOLVED,N,,2019-03-23,,58
CDISC-TEST,AE,CDISC-TEST-031,494,491,HYPERTENSION,Hypertension,10020772,Hypertension,10020772,Vascular hypertensive disorders NEC,10020774,Vascular hypertensive disorders,10057166,Vascular disorders,10047065,Vascular disorders,10047065,MILD,N,,,RECOVERED/RESOLVED,N,,2019-03-01,,36
CDISC-TEST,AE,CDISC-TEST-031,495,495,HYPERTENSION,Hypertension,10020772,Hypertension,10020772,Vascular hypertensive disorders NEC,10020774,Vascular hypertensive disorders,10057166,Vascular disorders,10047065,Vascular disorders,10047065,MILD,N,,,RECOVERED/RESOLVED,N,,2019-04-13,,79
CDISC-TEST,AE,CDISC-TEST-031,496,496,HYPERTENSION,Hypertension,10020772,Hypertension,10020772,Vascular hypertensive disorders NEC,10020774,Vascular hypertensive disorders,10057166,Vascular disorders,10047065,Vascular disorders,10047065,MODERATE,N,,,RECOVERED/RESOLVED,N,,2019-04-30,,96
CDISC-TEST,AE,CDISC-TEST-031,497,501,HYPERTENSION,Hypertension,10020772,Hypertension,10020772,Vascular hypertensive disorders NEC,10020774,Vascular hypertensive disorders,10057166,Vascular disorders,10047065,Vascular disorders,10047065,MILD,N,,,RECOVERED/RESOLVED,N,,2019-05-07,,103
CDISC-TEST,AE,CDISC-TEST-031,498,499,HYPERTENSION,Hypertension,10020772,Hypertension,10020772,Vascular hypertensive disorders NEC,10020774,Vascular hypertensive disorders,10057166,Vascular disorders,10047065,Vascular disorders,10047065,MODERATE,N,,,RECOVERED/RESOLVED,N,,2019-06-28,,155
CDISC-TEST,AE,CDISC-TEST-031,499,498,HYPERTENSION,Hypertension,10020772,Hypertension,10020772,Vascular hypertensive disorders NEC,10020774,Vascular hypertensive disorders,10057166,Vascular disorders,10047065,Vascular disorders,10047065,MILD,N,,,RECOVERED/RESOLVED,N,,2019-07-21,,178
CDISC-TEST,AE,CDISC-TEST-031,500,489,HYPOGLYCAEMIA,Hypoglycaemia,10020993,Hypoglycaemia,10020993,Hypoglycaemic conditions NEC,10021001,Glucose metabolism disorders (incl diabetes mellitus),10018424,Metabolism and nutrition disorders,10027433,Metabolism and nutrition disorders,10027433,MILD,N,,,RECOVERED/RESOLVED,N,,2019-04-08,,74
CDISC-TEST,AE,CDISC-TEST-031,501,502,HYPOGLYCAEMIC UNCONSCIOUSNESS,Hypoglycaemic unconsciousness,10065981,Hypoglycaemic unconsciousness,10065981,Disturbances in consciousness NEC,10013509,Neurological disorders NEC,10029305,Nervous system disorders,10029205,Nervous system disorders,10029205,MILD,N,,,RECOVERED/RESOLVED,N,,2019-05-15,,111
CDISC-TEST,AE,CDISC-TEST-031,502,494,NASOPHARYNGITIS,Nasopharyngitis,10028810,Nasopharyngitis,10028810,Upper respiratory tract infections,10046309,Infections - pathogen unspecified,10021879,Infections and infestations,10021881,Infections and infestations,10021881,MILD,N,,,RECOVERED/RESOLVED,N,,2019-04-01,,67
CDISC-TEST,AE,CDISC-TEST-032,503,513,UPSET STOMACH,Upset stomach,10046318,Abdominal discomfort,10000059,Gastrointestinal signs and symptoms NEC,10027678,Gastrointestinal signs and symptoms,10018012,Gastrointestinal disorders,10017947,Gastrointestinal disorders,10017947,MILD,N,,,RECOVERED/RESOLVED,N,,2019-06-03,,94
CDISC-TEST,AE,CDISC-TEST-032,504,518,BACK PAIN,Back pain,10003988,Back pain,10003988,Musculoskeletal and connective tissue pain and discomfort,10068757,Musculoskeletal and connective tissue disorders NEC,10028393,Musculoskeletal and connective tissue disorders,10028395,Musculoskeletal and connective tissue disorders,10028395,MILD,N,,,RECOVERED/RESOLVED,N,,2019-05-15,,75
CDISC-TEST,AE,CDISC-TEST-032,505,506,BACK PAIN,Back pain,10003988,Back pain,10003988,Musculoskeletal and connective tissue pain and discomfort,10068757,Musculoskeletal and connective tissue disorders NEC,10028393,Musculoskeletal and connective tissue disorders,10028395,Musculoskeletal and connective tissue disorders,10028395,MILD,N,,,RECOVERED/RESOLVED,N,,2019-08-02,,154
CDISC-TEST,AE,CDISC-TEST-032,506,512,BRONCHITIS,Bronchitis,10006451,Bronchitis,10006451,Lower respiratory tract and lung infections,10025101,Infections - pathogen unspecified,10021879,Infections and infestations,10021881,Infections and infestations,10021881,MILD,N,,,RECOVERED/RESOLVED,N,,2019-06-09,,100
CDISC-TEST,AE,CDISC-TEST-032,507,507,BRONCHITIS,Bronchitis,10006451,Bronchitis,10006451,Lower respiratory tract and lung infections,10025101,Infections - pathogen unspecified,10021879,Infections and infestations,10021881,Infections and infestations,10021881,MODERATE,N,,,RECOVERED/RESOLVED,N,,2019-07-14,,135
CDISC-TEST,AE,CDISC-TEST-032,508,503,BRONCHITIS,Bronchitis,10006451,Bronchitis,10006451,Lower respiratory tract and lung infections,10025101,Infections - pathogen unspecified,10021879,Infections and infestations,10021881,Infections and infestations,10021881,MILD,N,,,RECOVERED/RESOLVED,N,,2019-07-17,,138
CDISC-TEST,AE,CDISC-TEST-032,509,510,CHRONIC OBSTRUCTIVE PULMONARY DISEASE,Chronic obstructive pulmonary disease,10009033,Chronic obstructive pulmonary disease,10009033,Bronchospasm and obstruction,10006484,Bronchial disorders (excl neoplasms),10006436,"Respiratory, thoracic and mediastinal disorders",10038738,"Respiratory, thoracic and mediastinal disorders",10038738,MILD,N,,,RECOVERED/RESOLVED,N,,2019-08-02,,154
CDISC-TEST,AE,CDISC-TEST-032,510,504,CHRONIC OBSTRUCTIVE PULMONARY DISEASE,Chronic obstructive pulmonary disease,10009033,Chronic obstructive pulmonary disease,10009033,Bronchospasm and obstruction,10006484,Bronchial disorders (excl neoplasms),10006436,"Respiratory, thoracic and mediastinal disorders",10038738,"Respiratory, thoracic and mediastinal disorders",10038738,MILD,N,,,RECOVERED/RESOLVED,N,,2019-08-24,,176
CDISC-TEST,AE,CDISC-TEST-032,511,520,HEADACHE,Headache,10019211,Headache,10019211,Headaches NEC,10019233,Headaches,10019231,Nervous system disorders,10029205,Nervous system disorders,10029205,MILD,N,,,RECOVERED/RESOLVED,N,,2019-03-26,,25
CDISC-TEST,AE,CDISC-TEST-032,512,511,HEADACHE,Headache,10019211,Headache,10019211,Headaches NEC,10019233,Headaches,10019231,Nervous system disorders,10029205,Nervous system disorders,10029205,MILD,N,,,RECOVERED/RESOLVED,N,,2019-07-05,,126
CDISC-TEST,AE,CDISC-TEST-032,513,505,HEADACHE,Headache,10019211,Headache,10019211,Headaches NEC,10019233,Headaches,10019231,Nervous system disorders,10029205,Nervous system disorders,10029205,MILD,N,,,RECOVERED/RESOLVED,N,,2019-08-09,,161
CDISC-TEST,AE,CDISC-TEST-032,514,516,HYPERTENSION,Hypertension,10020772,Hypertension,10020772,Vascular hypertensive disorders NEC,10020774,Vascular hypertensive disorders,10057166,Vascular disorders,10047065,Vascular disorders,10047065,MILD,N,,,RECOVERED/RESOLVED,N,,2019-05-31,,91
CDISC-TEST,AE,CDISC-TEST-032,515,519,HYPERTENSION,Hypertension,10020772,Hypertension,10020772,Vascular hypertensive disorders NEC,10020774,Vascular hypertensive disorders,10057166,Vascular disorders,10047065,Vascular disorders,10047065,MILD,N,,,RECOVERED/RESOLVED,N,,2019-07-01,,122
CDISC-TEST,AE,CDISC-TEST-032,516,522,HYPOGLYCAEMIA,Hypoglycaemia,10020993,Hypoglycaemia,10020993,Hypoglycaemic conditions NEC,10021001,Glucose metabolism disorders (incl diabetes mellitus),10018424,Metabolism and nutrition disorders,10027433,Metabolism and nutrition disorders,10027433,MILD,N,,,RECOVERED/RESOLVED,N,,2019-04-25,,55
CDISC-TEST,AE,CDISC-TEST-032,517,514,HYPOGLYCAEMIA,Hypoglycaemia,10020993,Hypoglycaemia,10020993,Hypoglycaemic conditions NEC,10021001,Glucose metabolism disorders (incl diabetes mellitus),10018424,Metabolism and nutrition disorders,10027433,Metabolism and nutrition disorders,10027433,MILD,N,,,RECOVERED/RESOLVED,N,,2019-06-02,,93
CDISC-TEST,AE,CDISC-TEST-032,518,508,HYPOGLYCAEMIA,Hypoglycaemia,10020993,Hypoglycaemia,10020993,Hypoglycaemic conditions NEC,10021001,Glucose metabolism disorders (incl diabetes mellitus),10018424,Metabolism and nutrition disorders,10027433,Metabolism and nutrition disorders,10027433,MILD,N,,,RECOVERED/RESOLVED,N,,2019-08-16,,168
CDISC-TEST,AE,CDISC-TEST-032,519,515,NASOPHARYNGITIS,Nasopharyngitis,10028810,Nasopharyngitis,10028810,Upper respiratory tract infections,10046309,Infections - pathogen unspecified,10021879,Infections and infestations,10021881,Infections and infestations,10021881,MILD,N,,,RECOVERED/RESOLVED,N,,2019-06-11,,102
CDISC-TEST,AE,CDISC-TEST-032,520,509,NASOPHARYNGITIS,Nasopharyngitis,10028810,Nasopharyngitis,10028810,Upper respiratory tract infections,10046309,Infections - pathogen unspecified,10021879,Infections and infestations,10021881,Infections and infestations,10021881,MILD,N,,,RECOVERED/RESOLVED,N,,2019-07-06,,127
CDISC-TEST,AE,CDISC-TEST-032,521,521,PNEUMONIA,Pneumonia,10035664,Pneumonia,10035664,Lower respiratory tract and lung infections,10025101,Infections - pathogen unspecified,10021879,Infections and infestations,10021881,Infections and infestations,10021881,MODERATE,N,,,RECOVERED/RESOLVED,Y,,2019-04-10,,40
CDISC-TEST,AE,CDISC-TEST-032,522,517,URINARY TRACT INFECTION,Urinary tract infection,10046571,Urinary tract infection,10046571,Urinary tract infections,10046577,Infections - pathogen unspecified,10021879,Infections and infestations,10021881,Infections and infestations,10021881,MILD,N,,,RECOVERED/RESOLVED,N,,2019-05-17,,77
CDISC-TEST,AE,CDISC-TEST-033,523,531,BRONCHITIS,Bronchitis,10006451,Bronchitis,10006451,Lower respiratory tract and lung infections,10025101,Infections - pathogen unspecified,10021879,Infections and infestations,10021881,Infections and infestations,10021881,MILD,N,,,RECOVERED/RESOLVED,N,,2019-05-14,,78
CDISC-TEST,AE,CDISC-TEST-033,524,529,BRONCHITIS,Bronchitis,10006451,Bronchitis,10006451,Lower respiratory tract and lung infections,10025101,Infections - pathogen unspecified,10021879,Infections and infestations,10021881,Infections and infestations,10021881,MILD,N,,,RECOVERED/RESOLVED,N,,2019-07-15,,140
CDISC-TEST,AE,CDISC-TEST-033,525,525,BRONCHITIS,Bronchitis,10006451,Bronchitis,10006451,Lower respiratory tract and lung infections,10025101,Infections - pathogen unspecified,10021879,Infections and infestations,10021881,Infections and infestations,10021881,MILD,N,,,RECOVERED/RESOLVED,N,,2019-08-01,,157
CDISC-TEST,AE,CDISC-TEST-033,526,535,HYPERTENSION,Hypertension,10020772,Hypertension,10020772,Vascular hypertensive disorders NEC,10020774,Vascular hypertensive disorders,10057166,Vascular disorders,10047065,Vascular disorders,10047065,MILD,N,,,RECOVERED/RESOLVED,N,,2019-03-22,,25
CDISC-TEST,AE,CDISC-TEST-033,527,532,HYPERTENSION,Hypertension,10020772,Hypertension,10020772,Vascular hypertensive disorders NEC,10020774,Vascular hypertensive disorders,10057166,Vascular disorders,10047065,Vascular disorders,10047065,MILD,N,,,RECOVERED/RESOLVED,N,,2019-05-01,,65
CDISC-TEST,AE,CDISC-TEST-033,528,533,HYPOGLYCAEMIA,Hypoglycaemia,10020993,Hypoglycaemia,10020993,Hypoglycaemic conditions NEC,10021001,Glucose metabolism disorders (incl diabetes mellitus),10018424,Metabolism and nutrition disorders,10027433,Metabolism and nutrition disorders,10027433,MILD,N,,,RECOVERED/RESOLVED,N,,2019-03-06,,9
CDISC-TEST,AE,CDISC-TEST-033,529,527,HYPOGLYCAEMIA,Hypoglycaemia,10020993,Hypoglycaemia,10020993,Hypoglycaemic conditions NEC,10021001,Glucose metabolism disorders (incl diabetes mellitus),10018424,Metabolism and nutrition disorders,10027433,Metabolism and nutrition disorders,10027433,MILD,N,,,RECOVERED/RESOLVED,N,,2019-03-28,,31
CDISC-TEST,AE,CDISC-TEST-033,530,528,HYPOGLYCAEMIA,Hypoglycaemia,10020993,Hypoglycaemia,10020993,Hypoglycaemic conditions NEC,10021001,Glucose metabolism disorders (incl diabetes mellitus),10018424,Metabolism and nutrition disorders,10027433,Metabolism and nutrition disorders,10027433,MILD,N,,,RECOVERED/RESOLVED,N,,2019-07-27,,152
CDISC-TEST,AE,CDISC-TEST-033,531,526,HYPOGLYCAEMIA,Hypoglycaemia,10020993,Hypoglycaemia,10020993,Hypoglycaemic conditions NEC,10021001,Glucose metabolism disorders (incl diabetes mellitus),10018424,Metabolism and nutrition disorders,10027433,Metabolism and nutrition disorders,10027433,MILD,N,,,RECOVERED/RESOLVED,N,,2019-07-28,,153
CDISC-TEST,AE,CDISC-TEST-033,532,534,HYPOGLYCAEMIA,Hypoglycaemia,10020993,Hypoglycaemia,10020993,Hypoglycaemic conditions NEC,10021001,Glucose metabolism disorders (incl diabetes mellitus),10018424,Metabolism and nutrition disorders,10027433,Metabolism and nutrition disorders,10027433,MILD,N,,,RECOVERED/RESOLVED,N,,2019-08-01,,157
CDISC-TEST,AE,CDISC-TEST-033,533,524,HYPOGLYCAEMIA,Hypoglycaemia,10020993,Hypoglycaemia,10020993,Hypoglycaemic conditions NEC,10021001,Glucose metabolism disorders (incl diabetes mellitus),10018424,Metabolism and nutrition disorders,10027433,Metabolism and nutrition disorders,10027433,MILD,N,,,RECOVERED/RESOLVED,N,,2019-08-06,,162
CDISC-TEST,AE,CDISC-TEST-033,534,523,NASOPHARYNGITIS,Nasopharyngitis,10028810,Nasopharyngitis,10028810,Upper respiratory tract infections,10046309,Infections - pathogen unspecified,10021879,Infections and infestations,10021881,Infections and infestations,10021881,MILD,N,,,RECOVERED/RESOLVED,N,,2019-05-30,,94
CDISC-TEST,AE,CDISC-TEST-033,535,530,PNEUMONIA,Pneumonia,10035664,Pneumonia,10035664,Lower respiratory tract and lung infections,10025101,Infections - pathogen unspecified,10021879,Infections and infestations,10021881,Infections and infestations,10021881,MILD,N,,,RECOVERED/RESOLVED,N,,2019-05-21,,85
CDISC-TEST,AE,CDISC-TEST-034,536,549,BACK PAIN,Back pain,10003988,Back pain,10003988,Musculoskeletal and connective tissue pain and discomfort,10068757,Musculoskeletal and connective tissue disorders NEC,10028393,Musculoskeletal and connective tissue disorders,10028395,Musculoskeletal and connective tissue disorders,10028395,MILD,N,,,RECOVERED/RESOLVED,N,,2019-04-19,,83
CDISC-TEST,AE,CDISC-TEST-034,537,547,BRONCHITIS,Bronchitis,10006451,Bronchitis,10006451,Lower respiratory tract and lung infections,10025101,Infections - pathogen unspecified,10021879,Infections and infestations,10021881,Infections and infestations,10021881,MILD,N,,,RECOVERED/RESOLVED,N,,2019-02-05,,10
CDISC-TEST,AE,CDISC-TEST-034,538,544,HEADACHE,Headache,10019211,Headache,10019211,Headaches NEC,10019233,Headaches,10019231,Nervous system disorders,10029205,Nervous system disorders,10029205,MODERATE,N,,,RECOVERED/RESOLVED,N,,2019-02-27,,32
CDISC-TEST,AE,CDISC-TEST-034,539,543,HEADACHE,Headache,10019211,Headache,10019211,Headaches NEC,10019233,Headaches,10019231,Nervous system disorders,10029205,Nervous system disorders,10029205,MILD,N,,,RECOVERED/RESOLVED,N,,2019-04-21,,85
CDISC-TEST,AE,CDISC-TEST-034,540,538,HEADACHE,Headache,10019211,Headache,10019211,Headaches NEC,10019233,Headaches,10019231,Nervous system disorders,10029205,Nervous system disorders,10029205,MILD,N,,,RECOVERED/RESOLVED,N,,2019-07-20,,175
CDISC-TEST,AE,CDISC-TEST-034,541,545,HYPERTENSION,Hypertension,10020772,Hypertension,10020772,Vascular hypertensive disorders NEC,10020774,Vascular hypertensive disorders,10057166,Vascular disorders,10047065,Vascular disorders,10047065,MILD,N,,,RECOVERED/RESOLVED,N,,2019-03-09,,42
CDISC-TEST,AE,CDISC-TEST-034,542,539,HYPERTENSION,Hypertension,10020772,Hypertension,10020772,Vascular hypertensive disorders NEC,10020774,Vascular hypertensive disorders,10057166,Vascular disorders,10047065,Vascular disorders,10047065,MODERATE,N,,,RECOVERED/RESOLVED,N,,2019-05-03,,97
CDISC-TEST,AE,CDISC-TEST-034,543,542,HYPOGLYCAEMIA,Hypoglycaemia,10020993,Hypoglycaemia,10020993,Hypoglycaemic conditions NEC,10021001,Glucose metabolism disorders (incl diabetes mellitus),10018424,Metabolism and nutrition disorders,10027433,Metabolism and nutrition disorders,10027433,MILD,N,,,RECOVERED/RESOLVED,N,,2019-05-08,,102
CDISC-TEST,AE,CDISC-TEST-034,544,548,HYPOGLYCAEMIA,Hypoglycaemia,10020993,Hypoglycaemia,10020993,Hypoglycaemic conditions NEC,10021001,Glucose metabolism disorders (incl diabetes mellitus),10018424,Metabolism and nutrition disorders,10027433,Metabolism and nutrition disorders,10027433,MILD,N,,,RECOVERED/RESOLVED,N,,2019-07-18,,173
CDISC-TEST,AE,CDISC-TEST-034,545,546,NASOPHARYNGITIS,Nasopharyngitis,10028810,Nasopharyngitis,10028810,Upper respiratory tract infections,10046309,Infections - pathogen unspecified,10021879,Infections and infestations,10021881,Infections and infestations,10021881,MILD,N,,,RECOVERED/RESOLVED,N,,2019-02-21,,26
CDISC-TEST,AE,CDISC-TEST-034,546,537,NASOPHARYNGITIS,Nasopharyngitis,10028810,Nasopharyngitis,10028810,Upper respiratory tract infections,10046309,Infections - pathogen unspecified,10021879,Infections and infestations,10021881,Infections and infestations,10021881,MILD,N,,,RECOVERED/RESOLVED,N,,2019-05-10,,104
CDISC-TEST,AE,CDISC-TEST-034,547,541,PNEUMONIA,Pneumonia,10035664,Pneumonia,10035664,Lower respiratory tract and lung infections,10025101,Infections - pathogen unspecified,10021879,Infections and infestations,10021881,Infections and infestations,10021881,MODERATE,N,,,RECOVERED/RESOLVED,Y,,2019-05-10,,104
CDISC-TEST,AE,CDISC-TEST-034,548,536,PNEUMONIA,Pneumonia,10035664,Pneumonia,10035664,Lower respiratory tract and lung infections,10025101,Infections - pathogen unspecified,10021879,Infections and infestations,10021881,Infections and infestations,10021881,MILD,N,,,RECOVERED/RESOLVED,N,,2019-06-28,,153
CDISC-TEST,AE,CDISC-TEST-034,549,550,URINARY TRACT INFECTION,Urinary tract infection,10046571,Urinary tract infection,10046571,Urinary tract infections,10046577,Infections - pathogen unspecified,10021879,Infections and infestations,10021881,Infections and infestations,10021881,MILD,N,,,RECOVERED/RESOLVED,N,,2019-01-29,,3
CDISC-TEST,AE,CDISC-TEST-034,550,540,URINARY TRACT INFECTION,Urinary tract infection,10046571,Urinary tract infection,10046571,Urinary tract infections,10046577,Infections - pathogen unspecified,10021879,Infections and infestations,10021881,Infections and infestations,10021881,MILD,N,,,RECOVERED/RESOLVED,N,,2019-06-11,,136
CDISC-TEST,AE,CDISC-TEST-035,551,553,BRONCHITIS,Bronchitis,10006451,Bronchitis,10006451,Lower respiratory tract and lung infections,10025101,Infections - pathogen unspecified,10021879,Infections and infestations,10021881,Infections and infestations,10021881,MILD,N,,,RECOVERED/RESOLVED,N,,2019-03-04,,38
CDISC-TEST,AE,CDISC-TEST-035,552,559,BRONCHITIS,Bronchitis,10006451,Bronchitis,10006451,Lower respiratory tract and lung infections,10025101,Infections - pathogen unspecified,10021879,Infections and infestations,10021881,Infections and infestations,10021881,MILD,N,,,RECOVERED/RESOLVED,N,,2019-03-27,,61
CDISC-TEST,AE,CDISC-TEST-035,553,556,CHRONIC OBSTRUCTIVE PULMONARY DISEASE,Chronic obstructive pulmonary disease,10009033,Chronic obstructive pulmonary disease,10009033,Bronchospasm and obstruction,10006484,Bronchial disorders (excl neoplasms),10006436,"Respiratory, thoracic and mediastinal disorders",10038738,"Respiratory, thoracic and mediastinal disorders",10038738,MILD,N,,,RECOVERED/RESOLVED,N,,2019-06-11,,137
CDISC-TEST,AE,CDISC-TEST-035,554,555,DIARRHOEA,Diarrhoea,10012735,Diarrhoea,10012735,Diarrhoea (excl infective),10012736,Gastrointestinal motility and defaecation conditions,10017977,Gastrointestinal disorders,10017947,Gastrointestinal disorders,10017947,MILD,N,,,RECOVERED/RESOLVED,N,,2019-06-12,,138
CDISC-TEST,AE,CDISC-TEST-035,555,551,ELECTROCARDIOGRAM ST SEGMENT ELEVATION,Electrocardiogram ST segment elevation,10014392,Electrocardiogram ST segment elevation,10014392,ECG investigations,10053104,Cardiac and vascular investigations (excl enzyme tests),10007512,Investigations,10022891,Investigations,10022891,SEVERE,Y,,,NOT RECOVERED/NOT RESOLVED,Y,,2019-04-26,,91
CDISC-TEST,AE,CDISC-TEST-035,556,563,HEADACHE,Headache,10019211,Headache,10019211,Headaches NEC,10019233,Headaches,10019231,Nervous system disorders,10029205,Nervous system disorders,10029205,MILD,N,,,RECOVERED/RESOLVED,N,,2019-02-26,,32
CDISC-TEST,AE,CDISC-TEST-035,557,560,HEADACHE,Headache,10019211,Headache,10019211,Headaches NEC,10019233,Headaches,10019231,Nervous system disorders,10029205,Nervous system disorders,10029205,MILD,N,,,RECOVERED/RESOLVED,N,,2019-03-02,,36
CDISC-TEST,AE,CDISC-TEST-035,558,565,HEADACHE,Headache,10019211,Headache,10019211,Headaches NEC,10019233,Headaches,10019231,Nervous system disorders,10029205,Nervous system disorders,10029205,MILD,N,,,RECOVERED/RESOLVED,N,,2019-06-30,,156
CDISC-TEST,AE,CDISC-TEST-035,559,566,HYPERTENSION,Hypertension,10020772,Hypertension,10020772,Vascular hypertensive disorders NEC,10020774,Vascular hypertensive disorders,10057166,Vascular disorders,10047065,Vascular disorders,10047065,MILD,N,,,RECOVERED/RESOLVED,N,,2019-01-27,,2
CDISC-TEST,AE,CDISC-TEST-035,560,557,HYPERTENSION,Hypertension,10020772,Hypertension,10020772,Vascular hypertensive disorders NEC,10020774,Vascular hypertensive disorders,10057166,Vascular disorders,10047065,Vascular disorders,10047065,MODERATE,N,,,RECOVERED/RESOLVED,N,,2019-06-11,,137
CDISC-TEST,AE,CDISC-TEST-035,561,562,HYPOGLYCAEMIA,Hypoglycaemia,10020993,Hypoglycaemia,10020993,Hypoglycaemic conditions NEC,10021001,Glucose metabolism disorders (incl diabetes mellitus),10018424,Metabolism and nutrition disorders,10027433,Metabolism and nutrition disorders,10027433,MODERATE,N,,,RECOVERED/RESOLVED,N,,2019-02-09,,15
CDISC-TEST,AE,CDISC-TEST-035,562,564,HYPOGLYCAEMIC UNCONSCIOUSNESS,Hypoglycaemic unconsciousness,10065981,Hypoglycaemic unconsciousness,10065981,Disturbances in consciousness NEC,10013509,Neurological disorders NEC,10029305,Nervous system disorders,10029205,Nervous system disorders,10029205,MILD,N,,,RECOVERED/RESOLVED,N,,2019-01-30,,5
CDISC-TEST,AE,CDISC-TEST-035,563,558,HYPOGLYCAEMIC UNCONSCIOUSNESS,Hypoglycaemic unconsciousness,10065981,Hypoglycaemic unconsciousness,10065981,Disturbances in consciousness NEC,10013509,Neurological disorders NEC,10029305,Nervous system disorders,10029205,Nervous system disorders,10029205,MILD,N,,,RECOVERED/RESOLVED,N,,2019-07-23,,179
CDISC-TEST,AE,CDISC-TEST-035,564,561,PNEUMONIA,Pneumonia,10035664,Pneumonia,10035664,Lower respiratory tract and lung infections,10025101,Infections - pathogen unspecified,10021879,Infections and infestations,10021881,Infections and infestations,10021881,MILD,N,,,RECOVERED/RESOLVED,N,,2019-02-16,,22
CDISC-TEST,AE,CDISC-TEST-035,565,554,PNEUMONIA,Pneumonia,10035664,Pneumonia,10035664,Lower respiratory tract and lung infections,10025101,Infections - pathogen unspecified,10021879,Infections and infestations,10021881,Infections and infestations,10021881,MILD,N,,,RECOVERED/RESOLVED,N,,2019-06-05,,131
CDISC-TEST,AE,CDISC-TEST-035,566,552,URINARY TRACT INFECTION,Urinary tract infection,10046571,Urinary tract infection,10046571,Urinary tract infections,10046577,Infections - pathogen unspecified,10021879,Infections and infestations,10021881,Infections and infestations,10021881,MILD,N,,,RECOVERED/RESOLVED,N,,2019-05-31,,126
CDISC-TEST,AE,CDISC-TEST-036,567,575,UPSET STOMACH,Upset stomach,10046318,Abdominal discomfort,10000059,Gastrointestinal signs and symptoms NEC,10027678,Gastrointestinal signs and symptoms,10018012,Gastrointestinal disorders,10017947,Gastrointestinal disorders,10017947,MODERATE,N,,,RECOVERED/RESOLVED,N,,2019-06-25,,139
CDISC-TEST,AE,CDISC-TEST-036,568,577,DIARRHOEA,Diarrhoea,10012735,Diarrhoea,10012735,Diarrhoea (excl infective),10012736,Gastrointestinal motility and defaecation conditions,10017977,Gastrointestinal disorders,10017947,Gastrointestinal disorders,10017947,MILD,N,,,RECOVERED/RESOLVED,N,,2019-03-26,,48
CDISC-TEST,AE,CDISC-TEST-036,569,573,HEADACHE,Headache,10019211,Headache,10019211,Headaches NEC,10019233,Headaches,10019231,Nervous system disorders,10029205,Nervous system disorders,10029205,MILD,N,,,RECOVERED/RESOLVED,N,,2019-05-14,,97
CDISC-TEST,AE,CDISC-TEST-036,570,567,HEADACHE,Headache,10019211,Headache,10019211,Headaches NEC,10019233,Headaches,10019231,Nervous system disorders,10029205,Nervous system disorders,10029205,MILD,N,,,RECOVERED/RESOLVED,N,,2019-06-08,,122
CDISC-TEST,AE,CDISC-TEST-036,571,581,HEADACHE,Headache,10019211,Headache,10019211,Headaches NEC,10019233,Headaches,10019231,Nervous system disorders,10029205,Nervous system disorders,10029205,MILD,N,,,RECOVERED/RESOLVED,N,,2019-06-30,,144
CDISC-TEST,AE,CDISC-TEST-036,572,572,HYPERTENSION,Hypertension,10020772,Hypertension,10020772,Vascular hypertensive disorders NEC,10020774,Vascular hypertensive disorders,10057166,Vascular disorders,10047065,Vascular disorders,10047065,MILD,N,,,RECOVERED/RESOLVED,N,,2019-06-12,,126
CDISC-TEST,AE,CDISC-TEST-036,573,570,HYPERTENSION,Hypertension,10020772,Hypertension,10020772,Vascular hypertensive disorders NEC,10020774,Vascular hypertensive disorders,10057166,Vascular disorders,10047065,Vascular disorders,10047065,MILD,N,,,RECOVERED/RESOLVED,N,,2019-07-01,,145
CDISC-TEST,AE,CDISC-TEST-036,574,569,HYPERTENSION,Hypertension,10020772,Hypertension,10020772,Vascular hypertensive disorders NEC,10020774,Vascular hypertensive disorders,10057166,Vascular disorders,10047065,Vascular disorders,10047065,MILD,N,,,RECOVERED/RESOLVED,N,,2019-07-11,,155
CDISC-TEST,AE,CDISC-TEST-036,575,580,HYPOGLYCAEMIA,Hypoglycaemia,10020993,Hypoglycaemia,10020993,Hypoglycaemic conditions NEC,10021001,Glucose metabolism disorders (incl diabetes mellitus),10018424,Metabolism and nutrition disorders,10027433,Metabolism and nutrition disorders,10027433,MILD,N,,,RECOVERED/RESOLVED,N,,2019-03-08,,30
CDISC-TEST,AE,CDISC-TEST-036,576,574,HYPOGLYCAEMIA,Hypoglycaemia,10020993,Hypoglycaemia,10020993,Hypoglycaemic conditions NEC,10021001,Glucose metabolism disorders (incl diabetes mellitus),10018424,Metabolism and nutrition disorders,10027433,Metabolism and nutrition disorders,10027433,MILD,N,,,RECOVERED/RESOLVED,N,,2019-05-08,,91
CDISC-TEST,AE,CDISC-TEST-036,577,571,HYPOGLYCAEMIA,Hypoglycaemia,10020993,Hypoglycaemia,10020993,Hypoglycaemic conditions NEC,10021001,Glucose metabolism disorders (incl diabetes mellitus),10018424,Metabolism and nutrition disorders,10027433,Metabolism and nutrition disorders,10027433,MILD,N,,,RECOVERED/RESOLVED,N,,2019-06-25,,139
CDISC-TEST,AE,CDISC-TEST-036,578,568,HYPOGLYCAEMIA,Hypoglycaemia,10020993,Hypoglycaemia,10020993,Hypoglycaemic conditions NEC,10021001,Glucose metabolism disorders (incl diabetes mellitus),10018424,Metabolism and nutrition disorders,10027433,Metabolism and nutrition disorders,10027433,MILD,N,,,RECOVERED/RESOLVED,N,,2019-07-18,,162
CDISC-TEST,AE,CDISC-TEST-036,579,578,PNEUMONIA,Pneumonia,10035664,Pneumonia,10035664,Lower respiratory tract and lung infections,10025101,Infections - pathogen unspecified,10021879,Infections and infestations,10021881,Infections and infestations,10021881,MILD,N,,,RECOVERED/RESOLVED,N,,2019-03-16,,38
CDISC-TEST,AE,CDISC-TEST-036,580,576,PNEUMONIA,Pneumonia,10035664,Pneumonia,10035664,Lower respiratory tract and lung infections,10025101,Infections - pathogen unspecified,10021879,Infections and infestations,10021881,Infections and infestations,10021881,MILD,N,,,RECOVERED/RESOLVED,N,,2019-04-03,,56
CDISC-TEST,AE,CDISC-TEST-036,581,579,URINARY TRACT INFECTION,Urinary tract infection,10046571,Urinary tract infection,10046571,Urinary tract infections,10046577,Infections - pathogen unspecified,10021879,Infections and infestations,10021881,Infections and infestations,10021881,MILD,N,,,RECOVERED/RESOLVED,N,,2019-02-26,,20
CDISC-TEST,AE,CDISC-TEST-037,582,595,BACK PAIN,Back pain,10003988,Back pain,10003988,Musculoskeletal and connective tissue pain and discomfort,10068757,Musculoskeletal and connective tissue disorders NEC,10028393,Musculoskeletal and connective tissue disorders,10028395,Musculoskeletal and connective tissue disorders,10028395,MILD,N,,,RECOVERED/RESOLVED,N,,2019-04-01,,40
CDISC-TEST,AE,CDISC-TEST-037,583,584,CHRONIC OBSTRUCTIVE PULMONARY DISEASE,Chronic obstructive pulmonary disease,10009033,Chronic obstructive pulmonary disease,10009033,Bronchospasm and obstruction,10006484,Bronchial disorders (excl neoplasms),10006436,"Respiratory, thoracic and mediastinal disorders",10038738,"Respiratory, thoracic and mediastinal disorders",10038738,MILD,N,,,RECOVERED/RESOLVED,N,,2019-07-02,,132
CDISC-TEST,AE,CDISC-TEST-037,584,590,DIARRHOEA,Diarrhoea,10012735,Diarrhoea,10012735,Diarrhoea (excl infective),10012736,Gastrointestinal motility and defaecation conditions,10017977,Gastrointestinal disorders,10017947,Gastrointestinal disorders,10017947,MILD,N,,,RECOVERED/RESOLVED,N,,2019-05-04,,73
CDISC-TEST,AE,CDISC-TEST-037,585,582,DIARRHOEA,Diarrhoea,10012735,Diarrhoea,10012735,Diarrhoea (excl infective),10012736,Gastrointestinal motility and defaecation conditions,10017977,Gastrointestinal disorders,10017947,Gastrointestinal disorders,10017947,MILD,N,,,RECOVERED/RESOLVED,N,,2019-06-24,,124
CDISC-TEST,AE,CDISC-TEST-037,586,593,HEADACHE,Headache,10019211,Headache,10019211,Headaches NEC,10019233,Headaches,10019231,Nervous system disorders,10029205,Nervous system disorders,10029205,MILD,N,,,RECOVERED/RESOLVED,N,,2019-04-18,,57
CDISC-TEST,AE,CDISC-TEST-037,587,589,HEADACHE,Headache,10019211,Headache,10019211,Headaches NEC,10019233,Headaches,10019231,Nervous system disorders,10029205,Nervous system disorders,10029205,MILD,N,,,RECOVERED/RESOLVED,N,,2019-06-16,,116
CDISC-TEST,AE,CDISC-TEST-037,588,594,HYPERTENSION,Hypertension,10020772,Hypertension,10020772,Vascular hypertensive disorders NEC,10020774,Vascular hypertensive disorders,10057166,Vascular disorders,10047065,Vascular disorders,10047065,MILD,N,,,RECOVERED/RESOLVED,N,,2019-03-24,,32
CDISC-TEST,AE,CDISC-TEST-037,589,587,HYPERTENSION,Hypertension,10020772,Hypertension,10020772,Vascular hypertensive disorders NEC,10020774,Vascular hypertensive disorders,10057166,Vascular disorders,10047065,Vascular disorders,10047065,MILD,N,,,RECOVERED/RESOLVED,N,,2019-08-01,,162
CDISC-TEST,AE,CDISC-TEST-037,590,596,HYPOGLYCAEMIA,Hypoglycaemia,10020993,Hypoglycaemia,10020993,Hypoglycaemic conditions NEC,10021001,Glucose metabolism disorders (incl diabetes mellitus),10018424,Metabolism and nutrition disorders,10027433,Metabolism and nutrition disorders,10027433,MILD,N,,,RECOVERED/RESOLVED,N,,2019-03-08,,16
CDISC-TEST,AE,CDISC-TEST-037,591,591,HYPOGLYCAEMIA,Hypoglycaemia,10020993,Hypoglycaemia,10020993,Hypoglycaemic conditions NEC,10021001,Glucose metabolism disorders (incl diabetes mellitus),10018424,Metabolism and nutrition disorders,10027433,Metabolism and nutrition disorders,10027433,MILD,N,,,RECOVERED/RESOLVED,N,,2019-04-13,,52
CDISC-TEST,AE,CDISC-TEST-037,592,592,HYPOGLYCAEMIA,Hypoglycaemia,10020993,Hypoglycaemia,10020993,Hypoglycaemic conditions NEC,10021001,Glucose metabolism disorders (incl diabetes mellitus),10018424,Metabolism and nutrition disorders,10027433,Metabolism and nutrition disorders,10027433,MILD,N,,,RECOVERED/RESOLVED,N,,2019-04-29,,68
CDISC-TEST,AE,CDISC-TEST-037,593,583,HYPOGLYCAEMIA,Hypoglycaemia,10020993,Hypoglycaemia,10020993,Hypoglycaemic conditions NEC,10021001,Glucose metabolism disorders (incl diabetes mellitus),10018424,Metabolism and nutrition disorders,10027433,Metabolism and nutrition disorders,10027433,MILD,N,,,RECOVERED/RESOLVED,N,,2019-06-08,,108
CDISC-TEST,AE,CDISC-TEST-037,594,586,HYPOGLYCAEMIA,Hypoglycaemia,10020993,Hypoglycaemia,10020993,Hypoglycaemic conditions NEC,10021001,Glucose metabolism disorders (incl diabetes mellitus),10018424,Metabolism and nutrition disorders,10027433,Metabolism and nutrition disorders,10027433,MILD,N,,,RECOVERED/RESOLVED,N,,2019-08-15,,176
CDISC-TEST,AE,CDISC-TEST-037,595,585,NASOPHARYNGITIS,Nasopharyngitis,10028810,Nasopharyngitis,10028810,Upper respiratory tract infections,10046309,Infections - pathogen unspecified,10021879,Infections and infestations,10021881,Infections and infestations,10021881,MILD,N,,,RECOVERED/RESOLVED,N,,2019-06-30,,130
CDISC-TEST,AE,CDISC-TEST-037,596,597,PNEUMONIA,Pneumonia,10035664,Pneumonia,10035664,Lower respiratory tract and lung infections,10025101,Infections - pathogen unspecified,10021879,Infections and infestations,10021881,Infections and infestations,10021881,MODERATE,N,,,RECOVERED/RESOLVED,Y,,2019-04-05,,44
CDISC-TEST,AE,CDISC-TEST-037,597,588,PNEUMONIA,Pneumonia,10035664,Pneumonia,10035664,Lower respiratory tract and lung infections,10025101,Infections - pathogen unspecified,10021879,Infections and infestations,10021881,Infections and infestations,10021881,MODERATE,N,,,RECOVERED/RESOLVED,Y,,2019-07-17,,147
CDISC-TEST,AE,CDISC-TEST-038,598,609,BACK PAIN,Back pain,10003988,Back pain,10003988,Musculoskeletal and connective tissue pain and discomfort,10068757,Musculoskeletal and connective tissue disorders NEC,10028393,Musculoskeletal and connective tissue disorders,10028395,Musculoskeletal and connective tissue disorders,10028395,MODERATE,N,,,RECOVERED/RESOLVED,N,,2019-03-02,,26
CDISC-TEST,AE,CDISC-TEST-038,599,607,DIARRHOEA,Diarrhoea,10012735,Diarrhoea,10012735,Diarrhoea (excl infective),10012736,Gastrointestinal motility and defaecation conditions,10017977,Gastrointestinal disorders,10017947,Gastrointestinal disorders,10017947,MILD,N,,,RECOVERED/RESOLVED,N,,2019-03-20,,44
CDISC-TEST,AE,CDISC-TEST-038,600,600,DIARRHOEA,Diarrhoea,10012735,Diarrhoea,10012735,Diarrhoea (excl infective),10012736,Gastrointestinal motility and defaecation conditions,10017977,Gastrointestinal disorders,10017947,Gastrointestinal disorders,10017947,MILD,N,,,RECOVERED/RESOLVED,N,,2019-07-20,,166
CDISC-TEST,AE,CDISC-TEST-038,601,598,HEADACHE,Headache,10019211,Headache,10019211,Headaches NEC,10019233,Headaches,10019231,Nervous system disorders,10029205,Nervous system disorders,10029205,MILD,N,,,RECOVERED/RESOLVED,N,,2019-07-22,,168
CDISC-TEST,AE,CDISC-TEST-038,602,608,HYPERTENSION,Hypertension,10020772,Hypertension,10020772,Vascular hypertensive disorders NEC,10020774,Vascular hypertensive disorders,10057166,Vascular disorders,10047065,Vascular disorders,10047065,MILD,N,,,RECOVERED/RESOLVED,N,,2019-03-11,,35
CDISC-TEST,AE,CDISC-TEST-038,603,610,HYPERTENSION,Hypertension,10020772,Hypertension,10020772,Vascular hypertensive disorders NEC,10020774,Vascular hypertensive disorders,10057166,Vascular disorders,10047065,Vascular disorders,10047065,MILD,N,,,RECOVERED/RESOLVED,N,,2019-03-20,,44
CDISC-TEST,AE,CDISC-TEST-038,604,611,HYPERTENSION,Hypertension,10020772,Hypertension,10020772,Vascular hypertensive disorders NEC,10020774,Vascular hypertensive disorders,10057166,Vascular disorders,10047065,Vascular disorders,10047065,MILD,N,,,RECOVERED/RESOLVED,N,,2019-03-25,,49
CDISC-TEST,AE,CDISC-TEST-038,605,606,HYPOGLYCAEMIA,Hypoglycaemia,10020993,Hypoglycaemia,10020993,Hypoglycaemic conditions NEC,10021001,Glucose metabolism disorders (incl diabetes mellitus),10018424,Metabolism and nutrition disorders,10027433,Metabolism and nutrition disorders,10027433,MILD,N,,,RECOVERED/RESOLVED,N,,2019-05-06,,91
CDISC-TEST,AE,CDISC-TEST-038,606,602,HYPOGLYCAEMIA,Hypoglycaemia,10020993,Hypoglycaemia,10020993,Hypoglycaemic conditions NEC,10021001,Glucose metabolism disorders (incl diabetes mellitus),10018424,Metabolism and nutrition disorders,10027433,Metabolism and nutrition disorders,10027433,MILD,N,,,RECOVERED/RESOLVED,N,,2019-05-30,,115
CDISC-TEST,AE,CDISC-TEST-038,607,604,NASOPHARYNGITIS,Nasopharyngitis,10028810,Nasopharyngitis,10028810,Upper respiratory tract infections,10046309,Infections - pathogen unspecified,10021879,Infections and infestations,10021881,Infections and infestations,10021881,MODERATE,N,,,RECOVERED/RESOLVED,N,,2019-04-12,,67
CDISC-TEST,AE,CDISC-TEST-038,608,605,PNEUMONIA,Pneumonia,10035664,Pneumonia,10035664,Lower respiratory tract and lung infections,10025101,Infections - pathogen unspecified,10021879,Infections and infestations,10021881,Infections and infestations,10021881,MODERATE,N,,,RECOVERED/RESOLVED,Y,,2019-03-27,,51
CDISC-TEST,AE,CDISC-TEST-038,609,603,PNEUMONIA,Pneumonia,10035664,Pneumonia,10035664,Lower respiratory tract and lung infections,10025101,Infections - pathogen unspecified,10021879,Infections and infestations,10021881,Infections and infestations,10021881,MILD,N,,,RECOVERED/RESOLVED,N,,2019-04-13,,68
CDISC-TEST,AE,CDISC-TEST-038,610,601,PNEUMONIA,Pneumonia,10035664,Pneumonia,10035664,Lower respiratory tract and lung infections,10025101,Infections - pathogen unspecified,10021879,Infections and infestations,10021881,Infections and infestations,10021881,MILD,N,,,RECOVERED/RESOLVED,N,,2019-06-26,,142
CDISC-TEST,AE,CDISC-TEST-038,611,599,URINARY TRACT INFECTION,Urinary tract infection,10046571,Urinary tract infection,10046571,Urinary tract infections,10046577,Infections - pathogen unspecified,10021879,Infections and infestations,10021881,Infections and infestations,10021881,MILD,N,,,RECOVERED/RESOLVED,N,,2019-07-28,,174
CDISC-TEST,AE,CDISC-TEST-039,612,620,BRONCHITIS,Bronchitis,10006451,Bronchitis,10006451,Lower respiratory tract and lung infections,10025101,Infections - pathogen unspecified,10021879,Infections and infestations,10021881,Infections and infestations,10021881,MILD,N,,,RECOVERED/RESOLVED,N,,2019-05-17,,69
CDISC-TEST,AE,CDISC-TEST-039,613,629,DIARRHOEA,Diarrhoea,10012735,Diarrhoea,10012735,Diarrhoea (excl infective),10012736,Gastrointestinal motility and defaecation conditions,10017977,Gastrointestinal disorders,10017947,Gastrointestinal disorders,10017947,MILD,N,,,RECOVERED/RESOLVED,N,,2019-03-16,,7
CDISC-TEST,AE,CDISC-TEST-039,614,619,DIARRHOEA,Diarrhoea,10012735,Diarrhoea,10012735,Diarrhoea (excl infective),10012736,Gastrointestinal motility and defaecation conditions,10017977,Gastrointestinal disorders,10017947,Gastrointestinal disorders,10017947,MILD,N,,,RECOVERED/RESOLVED,N,,2019-06-06,,89
CDISC-TEST,AE,CDISC-TEST-039,615,615,DIARRHOEA,Diarrhoea,10012735,Diarrhoea,10012735,Diarrhoea (excl infective),10012736,Gastrointestinal motility and defaecation conditions,10017977,Gastrointestinal disorders,10017947,Gastrointestinal disorders,10017947,MILD,N,,,RECOVERED/RESOLVED,N,,2019-08-16,,160
CDISC-TEST,AE,CDISC-TEST-039,616,628,HEADACHE,Headache,10019211,Headache,10019211,Headaches NEC,10019233,Headaches,10019231,Nervous system disorders,10029205,Nervous system disorders,10029205,MILD,N,,,RECOVERED/RESOLVED,N,,2019-03-17,,8
CDISC-TEST,AE,CDISC-TEST-039,617,627,HEADACHE,Headache,10019211,Headache,10019211,Headaches NEC,10019233,Headaches,10019231,Nervous system disorders,10029205,Nervous system disorders,10029205,MILD,N,,,RECOVERED/RESOLVED,N,,2019-03-18,,9
CDISC-TEST,AE,CDISC-TEST-039,618,623,HEADACHE,Headache,10019211,Headache,10019211,Headaches NEC,10019233,Headaches,10019231,Nervous system disorders,10029205,Nervous system disorders,10029205,MODERATE,N,,,RECOVERED/RESOLVED,N,,2019-04-08,,30
CDISC-TEST,AE,CDISC-TEST-039,619,622,HEADACHE,Headache,10019211,Headache,10019211,Headaches NEC,10019233,Headaches,10019231,Nervous system disorders,10029205,Nervous system disorders,10029205,MILD,N,,,RECOVERED/RESOLVED,N,,2019-07-09,,122
CDISC-TEST,AE,CDISC-TEST-039,620,613,HEADACHE,Headache,10019211,Headache,10019211,Headaches NEC,10019233,Headaches,10019231,Nervous system disorders,10029205,Nervous system disorders,10029205,MILD,N,,,RECOVERED/RESOLVED,N,,2019-08-09,,153
CDISC-TEST,AE,CDISC-TEST-039,621,625,HYPERTENSION,Hypertension,10020772,Hypertension,10020772,Vascular hypertensive disorders NEC,10020774,Vascular hypertensive disorders,10057166,Vascular disorders,10047065,Vascular disorders,10047065,MODERATE,N,,,RECOVERED/RESOLVED,N,,2019-04-07,,29
CDISC-TEST,AE,CDISC-TEST-039,622,617,HYPERTENSION,Hypertension,10020772,Hypertension,10020772,Vascular hypertensive disorders NEC,10020774,Vascular hypertensive disorders,10057166,Vascular disorders,10047065,Vascular disorders,10047065,MILD,N,,,RECOVERED/RESOLVED,N,,2019-07-28,,141
CDISC-TEST,AE,CDISC-TEST-039,623,626,HYPOGLYCAEMIA,Hypoglycaemia,10020993,Hypoglycaemia,10020993,Hypoglycaemic conditions NEC,10021001,Glucose metabolism disorders (incl diabetes mellitus),10018424,Metabolism and nutrition disorders,10027433,Metabolism and nutrition disorders,10027433,MILD,N,,,RECOVERED/RESOLVED,N,,2019-04-01,,23
CDISC-TEST,AE,CDISC-TEST-039,624,621,HYPOGLYCAEMIA,Hypoglycaemia,10020993,Hypoglycaemia,10020993,Hypoglycaemic conditions NEC,10021001,Glucose metabolism disorders (incl diabetes mellitus),10018424,Metabolism and nutrition disorders,10027433,Metabolism and nutrition disorders,10027433,MILD,N,,,RECOVERED/RESOLVED,N,,2019-04-16,,38
CDISC-TEST,AE,CDISC-TEST-039,625,618,HYPOGLYCAEMIA,Hypoglycaemia,10020993,Hypoglycaemia,10020993,Hypoglycaemic conditions NEC,10021001,Glucose metabolism disorders (incl diabetes mellitus),10018424,Metabolism and nutrition disorders,10027433,Metabolism and nutrition disorders,10027433,MODERATE,N,,,RECOVERED/RESOLVED,N,,2019-07-13,,126
CDISC-TEST,AE,CDISC-TEST-039,626,624,HYPOGLYCAEMIA,Hypoglycaemia,10020993,Hypoglycaemia,10020993,Hypoglycaemic conditions NEC,10021001,Glucose metabolism disorders (incl diabetes mellitus),10018424,Metabolism and nutrition disorders,10027433,Metabolism and nutrition disorders,10027433,MILD,N,,,RECOVERED/RESOLVED,N,,2019-08-23,,167
CDISC-TEST,AE,CDISC-TEST-039,627,614,HYPOGLYCAEMIA,Hypoglycaemia,10020993,Hypoglycaemia,10020993,Hypoglycaemic conditions NEC,10021001,Glucose metabolism disorders (incl diabetes mellitus),10018424,Metabolism and nutrition disorders,10027433,Metabolism and nutrition disorders,10027433,MILD,N,,,RECOVERED/RESOLVED,N,,2019-09-04,,179
CDISC-TEST,AE,CDISC-TEST-039,628,612,PNEUMONIA,Pneumonia,10035664,Pneumonia,10035664,Lower respiratory tract and lung infections,10025101,Infections - pathogen unspecified,10021879,Infections and infestations,10021881,Infections and infestations,10021881,MILD,N,,,RECOVERED/RESOLVED,N,,2019-07-12,,125
CDISC-TEST,AE,CDISC-TEST-039,629,616,URINARY TRACT INFECTION,Urinary tract infection,10046571,Urinary tract infection,10046571,Urinary tract infections,10046577,Infections - pathogen unspecified,10021879,Infections and infestations,10021881,Infections and infestations,10021881,MILD,N,,,RECOVERED/RESOLVED,N,,2019-08-02,,146
CDISC-TEST,AE,CDISC-TEST-040,630,643,UPSET STOMACH,Upset stomach,10046318,Abdominal discomfort,10000059,Gastrointestinal signs and symptoms NEC,10027678,Gastrointestinal signs and symptoms,10018012,Gastrointestinal disorders,10017947,Gastrointestinal disorders,10017947,MILD,N,,,RECOVERED/RESOLVED,N,,2019-04-28,,48
CDISC-TEST,AE,CDISC-TEST-040,631,636,UPSET STOMACH,Upset stomach,10046318,Abdominal discomfort,10000059,Gastrointestinal signs and symptoms NEC,10027678,Gastrointestinal signs and symptoms,10018012,Gastrointestinal disorders,10017947,Gastrointestinal disorders,10017947,MILD,N,,,RECOVERED/RESOLVED,N,,2019-07-10,,121
CDISC-TEST,AE,CDISC-TEST-040,632,646,ANGINA UNSTABLE,Angina unstable,10002388,Angina unstable,10002388,Ischaemic coronary artery disorders,10011085,Coronary artery disorders,10011082,Cardiac disorders,10007541,Cardiac disorders,10007541,SEVERE,Y,,,NOT RECOVERED/NOT RESOLVED,Y,,2019-08-30,,172
CDISC-TEST,AE,CDISC-TEST-040,633,630,BRONCHITIS,Bronchitis,10006451,Bronchitis,10006451,Lower respiratory tract and lung infections,10025101,Infections - pathogen unspecified,10021879,Infections and infestations,10021881,Infections and infestations,10021881,MILD,N,,,RECOVERED/RESOLVED,N,,2019-08-27,,169
CDISC-TEST,AE,CDISC-TEST-040,634,644,HEADACHE,Headache,10019211,Headache,10019211,Headaches NEC,10019233,Headaches,10019231,Nervous system disorders,10029205,Nervous system disorders,10029205,MILD,N,,,RECOVERED/RESOLVED,N,,2019-06-08,,89
CDISC-TEST,AE,CDISC-TEST-040,635,635,HEADACHE,Headache,10019211,Headache,10019211,Headaches NEC,10019233,Headaches,10019231,Nervous system disorders,10029205,Nervous system disorders,10029205,MILD,N,,,RECOVERED/RESOLVED,N,,2019-07-12,,123
CDISC-TEST,AE,CDISC-TEST-040,636,631,HEADACHE,Headache,10019211,Headache,10019211,Headaches NEC,10019233,Headaches,10019231,Nervous system disorders,10029205,Nervous system disorders,10029205,MILD,N,,,RECOVERED/RESOLVED,N,,2019-09-05,,178
CDISC-TEST,AE,CDISC-TEST-040,637,642,HYPERTENSION,Hypertension,10020772,Hypertension,10020772,Vascular hypertensive disorders NEC,10020774,Vascular hypertensive disorders,10057166,Vascular disorders,10047065,Vascular disorders,10047065,MILD,N,,,RECOVERED/RESOLVED,N,,2019-04-21,,41
CDISC-TEST,AE,CDISC-TEST-040,638,641,HYPERTENSION,Hypertension,10020772,Hypertension,10020772,Vascular hypertensive disorders NEC,10020774,Vascular hypertensive disorders,10057166,Vascular disorders,10047065,Vascular disorders,10047065,MILD,N,,,RECOVERED/RESOLVED,N,,2019-05-11,,61
CDISC-TEST,AE,CDISC-TEST-040,639,638,HYPERTENSION,Hypertension,10020772,Hypertension,10020772,Vascular hypertensive disorders NEC,10020774,Vascular hypertensive disorders,10057166,Vascular disorders,10047065,Vascular disorders,10047065,MILD,N,,,RECOVERED/RESOLVED,N,,2019-06-03,,84
CDISC-TEST,AE,CDISC-TEST-040,640,637,HYPOGLYCAEMIA,Hypoglycaemia,10020993,Hypoglycaemia,10020993,Hypoglycaemic conditions NEC,10021001,Glucose metabolism disorders (incl diabetes mellitus),10018424,Metabolism and nutrition disorders,10027433,Metabolism and nutrition disorders,10027433,MILD,N,,,RECOVERED/RESOLVED,N,,2019-06-05,,86
CDISC-TEST,AE,CDISC-TEST-040,641,632,HYPOGLYCAEMIA,Hypoglycaemia,10020993,Hypoglycaemia,10020993,Hypoglycaemic conditions NEC,10021001,Glucose metabolism disorders (incl diabetes mellitus),10018424,Metabolism and nutrition disorders,10027433,Metabolism and nutrition disorders,10027433,MILD,N,,,RECOVERED/RESOLVED,N,,2019-09-03,,176
CDISC-TEST,AE,CDISC-TEST-040,642,645,NASOPHARYNGITIS,Nasopharyngitis,10028810,Nasopharyngitis,10028810,Upper respiratory tract infections,10046309,Infections - pathogen unspecified,10021879,Infections and infestations,10021881,Infections and infestations,10021881,MILD,N,,,RECOVERED/RESOLVED,N,,2019-04-05,,25
CDISC-TEST,AE,CDISC-TEST-040,643,639,PNEUMONIA,Pneumonia,10035664,Pneumonia,10035664,Lower respiratory tract and lung infections,10025101,Infections - pathogen unspecified,10021879,Infections and infestations,10021881,Infections and infestations,10021881,MILD,N,,,RECOVERED/RESOLVED,N,,2019-05-14,,64
CDISC-TEST,AE,CDISC-TEST-040,644,640,PNEUMONIA,Pneumonia,10035664,Pneumonia,10035664,Lower respiratory tract and lung infections,10025101,Infections - pathogen unspecified,10021879,Infections and infestations,10021881,Infections and infestations,10021881,MILD,N,,,RECOVERED/RESOLVED,N,,2019-07-09,,120
CDISC-TEST,AE,CDISC-TEST-040,645,634,PNEUMONIA,Pneumonia,10035664,Pneumonia,10035664,Lower respiratory tract and lung infections,10025101,Infections - pathogen unspecified,10021879,Infections and infestations,10021881,Infections and infestations,10021881,MILD,N,,,RECOVERED/RESOLVED,N,,2019-07-31,,142
CDISC-TEST,AE,CDISC-TEST-040,646,633,PNEUMONIA,Pneumonia,10035664,Pneumonia,10035664,Lower respiratory tract and lung infections,10025101,Infections - pathogen unspecified,10021879,Infections and infestations,10021881,Infections and infestations,10021881,MILD,N,,,RECOVERED/RESOLVED,N,,2019-08-29,,171
CDISC-TEST,AE,CDISC-TEST-041,647,657,BACK PAIN,Back pain,10003988,Back pain,10003988,Musculoskeletal and connective tissue pain and discomfort,10068757,Musculoskeletal and connective tissue disorders NEC,10028393,Musculoskeletal and connective tissue disorders,10028395,Musculoskeletal and connective tissue disorders,10028395,MILD,N,,,RECOVERED/RESOLVED,N,,2019-03-28,,31
CDISC-TEST,AE,CDISC-TEST-041,648,647,CHRONIC OBSTRUCTIVE PULMONARY DISEASE,Chronic obstructive pulmonary disease,10009033,Chronic obstructive pulmonary disease,10009033,Bronchospasm and obstruction,10006484,Bronchial disorders (excl neoplasms),10006436,"Respiratory, thoracic and mediastinal disorders",10038738,"Respiratory, thoracic and mediastinal disorders",10038738,MILD,N,,,RECOVERED/RESOLVED,N,,2019-05-28,,92
CDISC-TEST,AE,CDISC-TEST-041,649,660,DIARRHOEA,Diarrhoea,10012735,Diarrhoea,10012735,Diarrhoea (excl infective),10012736,Gastrointestinal motility and defaecation conditions,10017977,Gastrointestinal disorders,10017947,Gastrointestinal disorders,10017947,MILD,N,,,RECOVERED/RESOLVED,N,,2019-03-07,,10
CDISC-TEST,AE,CDISC-TEST-041,650,655,HEADACHE,Headache,10019211,Headache,10019211,Headaches NEC,10019233,Headaches,10019231,Nervous system disorders,10029205,Nervous system disorders,10029205,MILD,N,,,RECOVERED/RESOLVED,N,,2019-03-31,,34
CDISC-TEST,AE,CDISC-TEST-041,651,651,HEADACHE,Headache,10019211,Headache,10019211,Headaches NEC,10019233,Headaches,10019231,Nervous system disorders,10029205,Nervous system disorders,10029205,MILD,N,,,RECOVERED/RESOLVED,N,,2019-06-06,,101
CDISC-TEST,AE,CDISC-TEST-041,652,650,HEADACHE,Headache,10019211,Headache,10019211,Headaches NEC,10019233,Headaches,10019231,Nervous system disorders,10029205,Nervous system disorders,10029205,MILD,N,,,RECOVERED/RESOLVED,N,,2019-06-15,,110
CDISC-TEST,AE,CDISC-TEST-041,653,658,HEADACHE,Headache,10019211,Headache,10019211,Headaches NEC,10019233,Headaches,10019231,Nervous system disorders,10029205,Nervous system disorders,10029205,MILD,N,,,RECOVERED/RESOLVED,N,,2019-07-19,,144
CDISC-TEST,AE,CDISC-TEST-041,654,659,HYPERTENSION,Hypertension,10020772,Hypertension,10020772,Vascular hypertensive disorders NEC,10020774,Vascular hypertensive disorders,10057166,Vascular disorders,10047065,Vascular disorders,10047065,MILD,N,,,RECOVERED/RESOLVED,N,,2019-03-27,,30
CDISC-TEST,AE,CDISC-TEST-041,655,656,HYPERTENSION,Hypertension,10020772,Hypertension,10020772,Vascular hypertensive disorders NEC,10020774,Vascular hypertensive disorders,10057166,Vascular disorders,10047065,Vascular disorders,10047065,MILD,N,,,RECOVERED/RESOLVED,N,,2019-03-29,,32
CDISC-TEST,AE,CDISC-TEST-041,656,653,HYPERTENSION,Hypertension,10020772,Hypertension,10020772,Vascular hypertensive disorders NEC,10020774,Vascular hypertensive disorders,10057166,Vascular disorders,10047065,Vascular disorders,10047065,MILD,N,,,RECOVERED/RESOLVED,N,,2019-04-26,,60
CDISC-TEST,AE,CDISC-TEST-041,657,648,HYPERTENSION,Hypertension,10020772,Hypertension,10020772,Vascular hypertensive disorders NEC,10020774,Vascular hypertensive disorders,10057166,Vascular disorders,10047065,Vascular disorders,10047065,MILD,N,,,RECOVERED/RESOLVED,N,,2019-08-21,,177
CDISC-TEST,AE,CDISC-TEST-041,658,654,HYPOGLYCAEMIA,Hypoglycaemia,10020993,Hypoglycaemia,10020993,Hypoglycaemic conditions NEC,10021001,Glucose metabolism disorders (incl diabetes mellitus),10018424,Metabolism and nutrition disorders,10027433,Metabolism and nutrition disorders,10027433,MILD,N,,,RECOVERED/RESOLVED,N,,2019-04-11,,45
CDISC-TEST,AE,CDISC-TEST-041,659,652,HYPOGLYCAEMIA,Hypoglycaemia,10020993,Hypoglycaemia,10020993,Hypoglycaemic conditions NEC,10021001,Glucose metabolism disorders (incl diabetes mellitus),10018424,Metabolism and nutrition disorders,10027433,Metabolism and nutrition disorders,10027433,MILD,N,,,RECOVERED/RESOLVED,N,,2019-05-17,,81
CDISC-TEST,AE,CDISC-TEST-041,660,649,PNEUMONIA,Pneumonia,10035664,Pneumonia,10035664,Lower respiratory tract and lung infections,10025101,Infections - pathogen unspecified,10021879,Infections and infestations,10021881,Infections and infestations,10021881,MODERATE,N,,,RECOVERED/RESOLVED,N,,2019-07-03,,128
CDISC-TEST,AE,CDISC-TEST-042,661,670,UPSET STOMACH,Upset stomach,10046318,Abdominal discomfort,10000059,Gastrointestinal signs and symptoms NEC,10027678,Gastrointestinal signs and symptoms,10018012,Gastrointestinal disorders,10017947,Gastrointestinal disorders,10017947,MILD,N,,,RECOVERED/RESOLVED,N,,2019-03-24,,17
CDISC-TEST,AE,CDISC-TEST-042,662,666,BACK PAIN,Back pain,10003988,Back pain,10003988,Musculoskeletal and connective tissue pain and discomfort,10068757,Musculoskeletal and connective tissue disorders NEC,10028393,Musculoskeletal and connective tissue disorders,10028395,Musculoskeletal and connective tissue disorders,10028395,MILD,N,,,RECOVERED/RESOLVED,N,,2019-05-06,,60
CDISC-TEST,AE,CDISC-TEST-042,663,662,BACK PAIN,Back pain,10003988,Back pain,10003988,Musculoskeletal and connective tissue pain and discomfort,10068757,Musculoskeletal and connective tissue disorders NEC,10028393,Musculoskeletal and connective tissue disorders,10028395,Musculoskeletal and connective tissue disorders,10028395,MILD,N,,,RECOVERED/RESOLVED,N,,2019-08-23,,169
CDISC-TEST,AE,CDISC-TEST-042,664,667,DIARRHOEA,Diarrhoea,10012735,Diarrhoea,10012735,Diarrhoea (excl infective),10012736,Gastrointestinal motility and defaecation conditions,10017977,Gastrointestinal disorders,10017947,Gastrointestinal disorders,10017947,MILD,N,,,RECOVERED/RESOLVED,N,,2019-04-11,,35
