STUDYID,DOMAIN,USUBJID,FASEQ,FALNKGRP,FATESTCD,FATEST,FAOBJ,FACAT,FAORRES,FASTRESC,FALOC,VISITNUM,EPOCH,FADTC,FADY
CDISCPILOT01,FA,CDISC001,1,1,OCCUR,Occurrence Indicator,ERYTHEMA,INJECTION SITE REACTION,Y,Y,ARM,,TREATMENT,2012-12-02,3
CDISCPILOT01,FA,CDISC001,2,1,SEV,Severity/Intensity,ERYTHEMA,INJECTION SITE REACTION,MODERATE,MODERATE,ARM,,TREATMENT,2012-12-02,3
CDISCPILOT01,FA,CDISC001,3,1,OCCUR,Occurrence Indicator,PAIN,INJECTION SITE REACTION,N,N,ARM,,TREATMENT,2012-12-02,3
CDISCPILOT01,FA,CDISC001,4,1,OCCUR,Occurrence Indicator,INDURATION,INJECTION SITE REACTION,N,N,ARM,,TREATMENT,2012-12-02,3
CDISCPILOT01,FA,CDISC001,5,1,OCCUR,Occurrence Indicator,PRURITIS,INJECTION SITE REACTION,N,N,ARM,,TREATMENT,2012-12-02,3
