STUDYID,DOMAIN,USUBJID,ARMCD,ARM,ACTARMCD,ACTARM,ARMNRS,ACTARMUD
ABC123,DM,123101,A,Drug A,A,Drug A,,
ABC123,DM,123102,B,Drug B,B,Drug B,,
ABC123,DM,123103,,,,,SCREEN FAILURE,
ABC123,DM,123104,,,,,NOT ASSIGNED,
ABC123,DM,123105,A,Drug A,,,"ASSIGNED, NOT TREATED",
