STUDYID,RDOMAIN,USUBJID,IDVAR,IDVARVAL,QNAM,QLABEL,QVAL,QORIG
CDISC-TEST,AE,CDISC-TEST-001,AESEQ,1,AEDICTV,Dictionary Version,MEDDRA 23.1,Assigned
CDISC-TEST,AE,CDISC-TEST-001,AESEQ,1,AEGPE,Endpoint notified to GPE,0,CRF
CDISC-TEST,AE,CDISC-TEST-001,AESEQ,1,AERELPR,Relationship to Study Procedure,NOT RELATED,CRF
CDISC-TEST,AE,CDISC-TEST-001,AESEQ,1,AESIIN,Special Interest,N,CRF
CDISC-TEST,AE,CDISC-TEST-001,AESEQ,1,AETRTEM,Treatment Emergent Flag,TREATMENT EMERGENT,Derived
CDISC-TEST,AE,CDISC-TEST-001,AESEQ,1,AESOSP,Other Medically Important SAE ,SPONTANEOUS ABORTION ,CRF
CDISC-TEST,AE,CDISC-TEST-001,AESEQ,2,AEDICTV,Dictionary Version,MEDDRA 23.1,Assigned
CDISC-TEST,AE,CDISC-TEST-001,AESEQ,2,AEGPE,Endpoint notified to GPE,0,CRF
CDISC-TEST,AE,CDISC-TEST-001,AESEQ,2,AERELPR,Relationship to Study Procedure,NOT RELATED,CRF
CDISC-TEST,AE,CDISC-TEST-001,AESEQ,2,AESIIN,Special Interest,N,CRF
CDISC-TEST,AE,CDISC-TEST-001,AESEQ,2,AESTABLE,Stabilized,Y,CRF
CDISC-TEST,AE,CDISC-TEST-001,AESEQ,2,AETRTEM,Treatment Emergent Flag,TREATMENT EMERGENT,Derived
CDISC-TEST,AE,CDISC-TEST-001,AESEQ,3,AEDICTV,Dictionary Version,MEDDRA 23.1,Assigned
CDISC-TEST,AE,CDISC-TEST-001,AESEQ,3,AEGPE,Endpoint notified to GPE,0,CRF
CDISC-TEST,AE,CDISC-TEST-001,AESEQ,3,AERELPR,Relationship to Study Procedure,NOT RELATED,CRF
CDISC-TEST,AE,CDISC-TEST-001,AESEQ,3,AESIIN,Special Interest,N,CRF
CDISC-TEST,AE,CDISC-TEST-001,AESEQ,3,AETRTEM,Treatment Emergent Flag,TREATMENT EMERGENT,Derived
CDISC-TEST,AE,CDISC-TEST-001,AESEQ,4,AEDICTV,Dictionary Version,MEDDRA 23.1,Assigned
CDISC-TEST,AE,CDISC-TEST-001,AESEQ,4,AEGPE,Endpoint notified to GPE,0,CRF
CDISC-TEST,AE,CDISC-TEST-001,AESEQ,4,AERELPR,Relationship to Study Procedure,NOT RELATED,CRF
CDISC-TEST,AE,CDISC-TEST-001,AESEQ,4,AESIIN,Special Interest,N,CRF
CDISC-TEST,AE,CDISC-TEST-001,AESEQ,4,AETRTEM,Treatment Emergent Flag,TREATMENT EMERGENT,Derived
CDISC-TEST,AE,CDISC-TEST-001,AESEQ,5,AEDICTV,Dictionary Version,MEDDRA 23.1,Assigned
CDISC-TEST,AE,CDISC-TEST-001,AESEQ,5,AEGPE,Endpoint notified to GPE,0,CRF
CDISC-TEST,AE,CDISC-TEST-001,AESEQ,5,AERELPR,Relationship to Study Procedure,NOT RELATED,CRF
CDISC-TEST,AE,CDISC-TEST-001,AESEQ,5,AESIIN,Special Interest,N,CRF
CDISC-TEST,AE,CDISC-TEST-001,AESEQ,5,AETRTEM,Treatment Emergent Flag,TREATMENT EMERGENT,Derived
CDISC-TEST,AE,CDISC-TEST-002,AESEQ,18,AEDICTV,Dictionary Version,MEDDRA 23.1,Assigned
CDISC-TEST,AE,CDISC-TEST-002,AESEQ,18,AEGPE,Endpoint notified to GPE,0,CRF
CDISC-TEST,AE,CDISC-TEST-002,AESEQ,18,AERELPR,Relationship to Study Procedure,NOT RELATED,CRF
CDISC-TEST,AE,CDISC-TEST-002,AESEQ,18,AESIIN,Special Interest,N,CRF
CDISC-TEST,AE,CDISC-TEST-002,AESEQ,18,AETRTEM,Treatment Emergent Flag,TREATMENT EMERGENT,Derived
CDISC-TEST,AE,CDISC-TEST-002,AESEQ,19,AEDICTV,Dictionary Version,MEDDRA 23.1,Assigned
CDISC-TEST,AE,CDISC-TEST-002,AESEQ,19,AEGPE,Endpoint notified to GPE,0,CRF
CDISC-TEST,AE,CDISC-TEST-002,AESEQ,19,AERELPR,Relationship to Study Procedure,NOT RELATED,CRF
CDISC-TEST,AE,CDISC-TEST-002,AESEQ,19,AESIIN,Special Interest,N,CRF
CDISC-TEST,AE,CDISC-TEST-002,AESEQ,19,AETRTEM,Treatment Emergent Flag,TREATMENT EMERGENT,Derived
CDISC-TEST,AE,CDISC-TEST-002,AESEQ,20,AEDICTV,Dictionary Version,MEDDRA 23.1,Assigned
CDISC-TEST,AE,CDISC-TEST-002,AESEQ,20,AEGPE,Endpoint notified to GPE,0,CRF
CDISC-TEST,AE,CDISC-TEST-002,AESEQ,20,AERELPR,Relationship to Study Procedure,NOT RELATED,CRF
CDISC-TEST,AE,CDISC-TEST-002,AESEQ,20,AESIIN,Special Interest,N,CRF
CDISC-TEST,AE,CDISC-TEST-002,AESEQ,20,AETRTEM,Treatment Emergent Flag,TREATMENT EMERGENT,Derived
CDISC-TEST,AE,CDISC-TEST-002,AESEQ,29,AEDICTV,Dictionary Version,MEDDRA 23.1,Assigned
CDISC-TEST,AE,CDISC-TEST-002,AESEQ,29,AEGPE,Endpoint notified to GPE,0,CRF
CDISC-TEST,AE,CDISC-TEST-002,AESEQ,29,AERELPR,Relationship to Study Procedure,NOT RELATED,CRF
CDISC-TEST,AE,CDISC-TEST-002,AESEQ,29,AESIIN,Special Interest,N,CRF
CDISC-TEST,AE,CDISC-TEST-002,AESEQ,29,AETRTEM,Treatment Emergent Flag,TREATMENT EMERGENT,Derived
CDISC-TEST,AE,CDISC-TEST-002,AESEQ,29,AESOSP,Other Medically Important SAE ,HIGH RISK FOR ADDITIONAL THROMBOSIS,CRF
CDISC-TEST,AE,CDISC-TEST-019,AESEQ,296,AEDICTV,Dictionary Version,MEDDRA 23.1,Assigned
CDISC-TEST,AE,CDISC-TEST-019,AESEQ,296,AEGPE,Endpoint notified to GPE,0,CRF
CDISC-TEST,AE,CDISC-TEST-019,AESEQ,296,AERELPR,Relationship to Study Procedure,NOT RELATED,CRF
CDISC-TEST,AE,CDISC-TEST-019,AESEQ,296,AESIIN,Special Interest,N,CRF
CDISC-TEST,AE,CDISC-TEST-019,AESEQ,296,AETRTEM,Treatment Emergent Flag,TREATMENT EMERGENT,Derived
CDISC-TEST,AE,CDISC-TEST-019,AESEQ,297,AEDICTV,Dictionary Version,MEDDRA 23.1,Assigned
CDISC-TEST,AE,CDISC-TEST-019,AESEQ,297,AEGPE,Endpoint notified to GPE,0,CRF
CDISC-TEST,AE,CDISC-TEST-019,AESEQ,297,AERELPR,Relationship to Study Procedure,NOT RELATED,CRF
CDISC-TEST,AE,CDISC-TEST-019,AESEQ,297,AESIIN,Special Interest,N,CRF
CDISC-TEST,AE,CDISC-TEST-019,AESEQ,297,AESTABLE,Stabilized,Y,CRF
CDISC-TEST,AE,CDISC-TEST-019,AESEQ,297,AETRTEM,Treatment Emergent Flag,TREATMENT EMERGENT,Derived
CDISC-TEST,AE,CDISC-TEST-021,AESEQ,338,AEDICTV,Dictionary Version,MEDDRA 23.1,Assigned
CDISC-TEST,AE,CDISC-TEST-021,AESEQ,338,AEGPE,Endpoint notified to GPE,0,CRF
CDISC-TEST,AE,CDISC-TEST-021,AESEQ,338,AERELPR,Relationship to Study Procedure,NOT RELATED,CRF
CDISC-TEST,AE,CDISC-TEST-021,AESEQ,338,AESIIN,Special Interest,N,CRF
CDISC-TEST,AE,CDISC-TEST-021,AESEQ,338,AETRTEM,Treatment Emergent Flag,TREATMENT EMERGENT,Derived
CDISC-TEST,AE,CDISC-TEST-011,AESEQ,1,AEDICTV,Dictionary Version,MEDDRA 23.1,Assigned
CDISC-TEST,AE,CDISC-TEST-011,AESEQ,1,AEGPE,Endpoint notified to GPE,0,CRF
CDISC-TEST,AE,CDISC-TEST-011,AESEQ,1,AERELPR,Relationship to Study Procedure,NOT RELATED,CRF
CDISC-TEST,AE,CDISC-TEST-011,AESEQ,1,AESIIN,Special Interest,N,CRF
CDISC-TEST,AE,CDISC-TEST-011,AESEQ,1,AETRTEM,Treatment Emergent Flag,TREATMENT EMERGENT,Derived
CDISC-TEST,AE,CDISC-TEST-011,AESEQ,4,AEDICTV,Dictionary Version,MEDDRA 23.1,Assigned
CDISC-TEST,AE,CDISC-TEST-011,AESEQ,4,AEGPE,Endpoint notified to GPE,0,CRF
CDISC-TEST,AE,CDISC-TEST-011,AESEQ,4,AERELPR,Relationship to Study Procedure,NOT RELATED,CRF
CDISC-TEST,AE,CDISC-TEST-011,AESEQ,4,AESIIN,Special Interest,N,CRF
CDISC-TEST,AE,CDISC-TEST-011,AESEQ,4,AETRTEM,Treatment Emergent Flag,TREATMENT EMERGENT,Derived
CDISC-TEST,AE,CDISC-TEST-011,AESEQ,5,AEDICTV,Dictionary Version,MEDDRA 23.1,Assigned
CDISC-TEST,AE,CDISC-TEST-011,AESEQ,5,AEGPE,Endpoint notified to GPE,0,CRF
CDISC-TEST,AE,CDISC-TEST-011,AESEQ,5,AERELPR,Relationship to Study Procedure,NOT RELATED,CRF
CDISC-TEST,AE,CDISC-TEST-011,AESEQ,5,AESIIN,Special Interest,N,CRF
CDISC-TEST,AE,CDISC-TEST-011,AESEQ,5,AETRTEM,Treatment Emergent Flag,TREATMENT EMERGENT,Derived
CDISC-TEST,AE,CDISC-TEST-011,AESEQ,5,AESOSP,Other Medically Important SAE ,HIGH RISK FOR ADDITIONAL THROMBOSIS,CRF
CDISC-TEST,AE,CDISC-TEST-022,AESEQ,18,AEDICTV,Dictionary Version,MEDDRA 23.1,Assigned
CDISC-TEST,AE,CDISC-TEST-022,AESEQ,18,AEGPE,Endpoint notified to GPE,0,CRF
CDISC-TEST,AE,CDISC-TEST-022,AESEQ,18,AERELPR,Relationship to Study Procedure,NOT RELATED,CRF
CDISC-TEST,AE,CDISC-TEST-022,AESEQ,18,AESIIN,Special Interest,N,CRF
CDISC-TEST,AE,CDISC-TEST-022,AESEQ,18,AETRTEM,Treatment Emergent Flag,TREATMENT EMERGENT,Derived
CDISC-TEST,AE,CDISC-TEST-022,AESEQ,19,AEDICTV,Dictionary Version,MEDDRA 23.1,Assigned
CDISC-TEST,AE,CDISC-TEST-022,AESEQ,19,AEGPE,Endpoint notified to GPE,0,CRF
CDISC-TEST,AE,CDISC-TEST-022,AESEQ,19,AERELPR,Relationship to Study Procedure,NOT RELATED,CRF
CDISC-TEST,AE,CDISC-TEST-022,AESEQ,19,AESIIN,Special Interest,N,CRF
CDISC-TEST,AE,CDISC-TEST-022,AESEQ,19,AETRTEM,Treatment Emergent Flag,TREATMENT EMERGENT,Derived
CDISC-TEST,AE,CDISC-TEST-022,AESEQ,20,AEDICTV,Dictionary Version,MEDDRA 23.1,Assigned
CDISC-TEST,AE,CDISC-TEST-022,AESEQ,20,AEGPE,Endpoint notified to GPE,0,CRF
CDISC-TEST,AE,CDISC-TEST-022,AESEQ,20,AERELPR,Relationship to Study Procedure,NOT RELATED,CRF
CDISC-TEST,AE,CDISC-TEST-022,AESEQ,20,AESIIN,Special Interest,N,CRF
CDISC-TEST,AE,CDISC-TEST-022,AESEQ,20,AETRTEM,Treatment Emergent Flag,TREATMENT EMERGENT,Derived
CDISC-TEST,AE,CDISC-TEST-022,AESEQ,29,AEDICTV,Dictionary Version,MEDDRA 23.1,Assigned
CDISC-TEST,AE,CDISC-TEST-022,AESEQ,29,AEGPE,Endpoint notified to GPE,0,CRF
CDISC-TEST,AE,CDISC-TEST-022,AESEQ,29,AERELPR,Relationship to Study Procedure,NOT RELATED,CRF
CDISC-TEST,AE,CDISC-TEST-022,AESEQ,29,AESIIN,Special Interest,N,CRF
CDISC-TEST,AE,CDISC-TEST-022,AESEQ,29,AETRTEM,Treatment Emergent Flag,TREATMENT EMERGENT,Derived
CDISC-TEST,AE,CDISC-TEST-191,AESEQ,296,AEDICTV,Dictionary Version,MEDDRA 23.1,Assigned
CDISC-TEST,AE,CDISC-TEST-191,AESEQ,296,AEGPE,Endpoint notified to GPE,0,CRF
CDISC-TEST,AE,CDISC-TEST-191,AESEQ,296,AERELPR,Relationship to Study Procedure,NOT RELATED,CRF
CDISC-TEST,AE,CDISC-TEST-191,AESEQ,296,AESIIN,Special Interest,N,CRF
CDISC-TEST,AE,CDISC-TEST-191,AESEQ,296,AETRTEM,Treatment Emergent Flag,TREATMENT EMERGENT,Derived
CDISC-TEST,AE,CDISC-TEST-191,AESEQ,297,AEDICTV,Dictionary Version,MEDDRA 23.1,Assigned
CDISC-TEST,AE,CDISC-TEST-191,AESEQ,297,AEGPE,Endpoint notified to GPE,0,CRF
CDISC-TEST,AE,CDISC-TEST-191,AESEQ,297,AERELPR,Relationship to Study Procedure,NOT RELATED,CRF
CDISC-TEST,AE,CDISC-TEST-191,AESEQ,297,AESIIN,Special Interest,N,CRF
CDISC-TEST,AE,CDISC-TEST-191,AESEQ,297,AESTABLE,Stabilized,Y,CRF
CDISC-TEST,AE,CDISC-TEST-191,AESEQ,297,AETRTEM,Treatment Emergent Flag,TREATMENT EMERGENT,Derived
