STUDYID,DOMAIN,USUBJID,CMSEQ,CMGRPID,CMTRT,CMDECOD,CMCAT,CMSCAT,CMINDC,CMDOSE,CMDOSU,CMDOSFRQ,CMROUTE,EPOCH,CMSTDTC,CMENDTC,CMSTDY,CMENDY,CMENRTPT,CMENTPT
CDISCPILOT01,CM,CDISC001,1,1,ASPIRIN,,CONCOMITANT THERAPY,PROPHYLAXIS THERAPY,PROPHYLAXIS OR NON-THERAPEUTIC USE,1,TABLET,QD,ORAL,SCREENING,2011,2013-04-29,,151,,
CDISCPILOT01,CM,CDISC001,2,2,METAMUCIL,PLANTAGO OVATA HUSK,CONCOMITANT THERAPY,PROPHYLAXIS THERAPY,PROPHYLAXIS OR NON-THERAPEUTIC USE,1,TABLET,PRN,ORAL,SCREENING,2012-08,,,,ONGOING,2013-05-20
CDISCPILOT01,CM,CDISC001,3,3,"HYDROCORTISONE, TOPICAL",CORTISONE,CONCOMITANT THERAPY,PROPHYLAXIS THERAPY,PROPHYLAXIS OR NON-THERAPEUTIC USE,1,TABLET,BID,TOPICAL,TREATMENT,2013-01-11,,43,,ONGOING,2013-05-20
