STUDYID,DOMAIN,USUBJID,EXSEQ,EXTRT,EXDTC,EXDY,EXSTDTC,EXENDTC,EXSTDY,EXENDY
CDISCPILOT01,EX,CDISC-TEST-001,1,ZANOMALINE,2012-11-30,1,2012-11-30,2012-11-30,0,0
CDISCPILOT01,EX,CDISC-TEST-001,2,ZANOMALINE,2012-12-01,2,2012-12-01,2012-12-01,1,1
CDISCPILOT01,EX,CDISC-TEST-001,3,ZANOMALINE,2012-12-02,3,2012-12-02,2012-12-02,2,2
CDISCPILOT01,EX,CDISC-TEST-001,4,ZANOMALINE,2012-12-03,4,2012-12-03,2012-12-03,3,3
CDISCPILOT01,EX,CDISC-TEST-001,5,ZANOMALINE,2012-12-04,5,2012-12-04,2012-12-04,4,4
CDISCPILOT01,EX,CDISC-TEST-001,6,ZANOMALINE,2012-12-05,6,2012-12-05,2012-12-05,5,5
CDISCPILOT01,EX,CDISC-TEST-001,7,ZANOMALINE,2012-12-06,7,2012-12-06,2012-12-06,6,6
CDISCPILOT01,EX,CDISC-TEST-001,2,ZANOMALINE,2012-12-01,2,2012-12-01,2012-12-01,1,1
CDISCPILOT01,EX,CDISC-TEST-001,3,ZANOMALINE,2012-12-02,3,2012-12-02,2012-12-02,2,2
CDISCPILOT01,EX,CDISC-TEST-001,4,ZANOMALINE,2012-12-03,4,2012-12-03,2012-12-03,3,3
CDISCPILOT01,EX,CDISC-TEST-001,5,ZANOMALINE,2012-12-04,5,2012-12-04,2012-12-04,4,4
CDISCPILOT01,EX,CDISC-TEST-001,6,ZANOMALINE,2012-12-05,6,2012-12-05,2012-12-05,5,5
CDISCPILOT01,EX,CDISC-TEST-001,7,ZANOMALINE,2012-12-06,7,2012-12-06,2012-12-06,6,6
CDISCPILOT01,EX,CDISC-TEST-001,7,ZANOMALINE,2012-11-29,-1,,,,
CDISCPILOT01,EX,CDISC-TEST-001,7,ZANOMALINE,2012-11-28,-2,,,,
CDISCPILOT01,EX,CDISC-TEST-001,7,ZANOMALINE,2012-11-27,-3,,,,
CDISCPILOT01,EX,CDISC-TEST-001,7,ZANOMALINE,2012-11-26,-4,,,,
CDISCPILOT01,EX,CDISC-TEST-001,7,ZANOMALINE,2012-11-29,-1,,,,
CDISCPILOT01,EX,CDISC-TEST-001,7,ZANOMALINE,2012-11-28,-2,,,,
CDISCPILOT01,EX,CDISC-TEST-001,7,ZANOMALINE,2012-11-27,-3,,,,
CDISCPILOT01,EX,CDISC-TEST-001,7,ZANOMALINE,2012-11-26,-4,,,,
