STUDYID,DOMAIN,USUBJID,VSSEQ,VSTESTCD,VSTEST,VSPOS,VSORRES,VSORRESU,VSSTRESC,VSSTRESN,VSSTRESU,VSSTAT,VSLOC,VSLOBXFL,VSREPNUM,VISITNUM,VISIT,EPOCH,VSDTC,VSDY
CDISCPILOT01,VS,CDISC004,1,DIABP,Diastolic Blood Pressure,SUPINE,47,mmHg,47,47,mmHg,,,,1,1,SCREENING 1,SCREENING,2013-10-01,-7
CDISCPILOT01,VS,CDISC004,2,DIABP,Diastolic Blood Pressure,STANDING,55,mmHg,55,55,mmHg,,,,2,1,SCREENING 1,SCREENING,2013-10-01,-7
CDISCPILOT01,VS,CDISC004,3,DIABP,Diastolic Blood Pressure,STANDING,56,mmHg,56,56,mmHg,,,,3,1,SCREENING 1,SCREENING,2013-10-01,-7
CDISCPILOT01,VS,CDISC004,4,DIABP,Diastolic Blood Pressure,SUPINE,56,mmHg,56,56,mmHg,,,,1,2,SCREENING 2,SCREENING,2013-10-06,-2
CDISCPILOT01,VS,CDISC004,5,DIABP,Diastolic Blood Pressure,STANDING,56,mmHg,56,56,mmHg,,,,2,2,SCREENING 2,SCREENING,2013-10-06,-2
CDISCPILOT01,VS,CDISC004,6,DIABP,Diastolic Blood Pressure,STANDING,57,mmHg,57,57,mmHg,,,,3,2,SCREENING 2,SCREENING,2013-10-06,-2
CDISCPILOT01,VS,CDISC004,7,DIABP,Diastolic Blood Pressure,SUPINE,58,mmHg,58,58,mmHg,,,,1,3,BASELINE,SCREENING,2013-10-08,1
CDISCPILOT01,VS,CDISC004,8,DIABP,Diastolic Blood Pressure,STANDING,52,mmHg,52,52,mmHg,,,,2,3,BASELINE,SCREENING,2013-10-08,1
CDISCPILOT01,VS,CDISC004,9,DIABP,Diastolic Blood Pressure,STANDING,54,mmHg,54,54,mmHg,,,Y,3,3,BASELINE,SCREENING,2013-10-08,1
CDISCPILOT01,VS,CDISC004,10,DIABP,Diastolic Blood Pressure,SUPINE,52,mmHg,52,52,mmHg,,,,1,4,WEEK 2,TREATMENT,2013-10-24,17
CDISCPILOT01,VS,CDISC004,11,DIABP,Diastolic Blood Pressure,STANDING,56,mmHg,56,56,mmHg,,,,2,4,WEEK 2,TREATMENT,2013-10-24,17
CDISCPILOT01,VS,CDISC004,12,DIABP,Diastolic Blood Pressure,STANDING,58,mmHg,58,58,mmHg,,,,3,4,WEEK 2,TREATMENT,2013-10-24,17
CDISCPILOT01,VS,CDISC004,13,DIABP,Diastolic Blood Pressure,SUPINE,41,mmHg,41,41,mmHg,,,,1,5,WEEK 4,TREATMENT,2013-11-08,32
CDISCPILOT01,VS,CDISC004,14,DIABP,Diastolic Blood Pressure,STANDING,39,mmHg,39,39,mmHg,,,,2,5,WEEK 4,TREATMENT,2013-11-08,32
CDISCPILOT01,VS,CDISC004,15,DIABP,Diastolic Blood Pressure,STANDING,50,mmHg,50,50,mmHg,,,,3,5,WEEK 4,TREATMENT,2013-11-08,32
CDISCPILOT01,VS,CDISC004,16,DIABP,Diastolic Blood Pressure,SUPINE,48,mmHg,48,48,mmHg,,,,1,7,WEEK 6,TREATMENT,2013-11-19,43
CDISCPILOT01,VS,CDISC004,17,DIABP,Diastolic Blood Pressure,STANDING,52,mmHg,52,52,mmHg,,,,2,7,WEEK 6,TREATMENT,2013-11-19,43
CDISCPILOT01,VS,CDISC004,18,DIABP,Diastolic Blood Pressure,STANDING,54,mmHg,54,54,mmHg,,,,3,7,WEEK 6,TREATMENT,2013-11-19,43
CDISCPILOT01,VS,CDISC004,19,DIABP,Diastolic Blood Pressure,SUPINE,49,mmHg,49,49,mmHg,,,,1,8,WEEK 8,TREATMENT,2013-12-03,57
CDISCPILOT01,VS,CDISC004,20,DIABP,Diastolic Blood Pressure,STANDING,52,mmHg,52,52,mmHg,,,,2,8,WEEK 8,TREATMENT,2013-12-03,57
CDISCPILOT01,VS,CDISC004,21,DIABP,Diastolic Blood Pressure,STANDING,57,mmHg,57,57,mmHg,,,,3,8,WEEK 8,TREATMENT,2013-12-03,57
CDISCPILOT01,VS,CDISC004,22,DIABP,Diastolic Blood Pressure,SUPINE,55,mmHg,55,55,mmHg,,,,1,9,WEEK 12,TREATMENT,2013-12-31,85
CDISCPILOT01,VS,CDISC004,23,DIABP,Diastolic Blood Pressure,STANDING,49,mmHg,49,49,mmHg,,,,2,9,WEEK 12,TREATMENT,2013-12-31,85
CDISCPILOT01,VS,CDISC004,24,DIABP,Diastolic Blood Pressure,STANDING,57,mmHg,57,57,mmHg,,,,3,9,WEEK 12,TREATMENT,2013-12-31,85
CDISCPILOT01,VS,CDISC004,25,DIABP,Diastolic Blood Pressure,SUPINE,52,mmHg,52,52,mmHg,,,,1,10,WEEK 16,TREATMENT,2014-01-27,112
CDISCPILOT01,VS,CDISC004,26,DIABP,Diastolic Blood Pressure,STANDING,49,mmHg,49,49,mmHg,,,,2,10,WEEK 16,TREATMENT,2014-01-27,112
CDISCPILOT01,VS,CDISC004,27,DIABP,Diastolic Blood Pressure,STANDING,55,mmHg,55,55,mmHg,,,,3,10,WEEK 16,TREATMENT,2014-01-27,112
CDISCPILOT01,VS,CDISC004,28,DIABP,Diastolic Blood Pressure,SUPINE,54,mmHg,54,54,mmHg,,,,1,11,WEEK 20,TREATMENT,2014-02-25,141
CDISCPILOT01,VS,CDISC004,29,DIABP,Diastolic Blood Pressure,STANDING,48,mmHg,48,48,mmHg,,,,2,11,WEEK 20,TREATMENT,2014-02-25,141
CDISCPILOT01,VS,CDISC004,30,DIABP,Diastolic Blood Pressure,STANDING,56,mmHg,56,56,mmHg,,,,3,11,WEEK 20,TREATMENT,2014-02-25,141
CDISCPILOT01,VS,CDISC004,31,DIABP,Diastolic Blood Pressure,SUPINE,48,mmHg,48,48,mmHg,,,,1,12,WEEK 24,TREATMENT,2014-03-18,162
CDISCPILOT01,VS,CDISC004,32,DIABP,Diastolic Blood Pressure,STANDING,56,mmHg,56,56,mmHg,,,,2,12,WEEK 24,TREATMENT,2014-03-18,162
CDISCPILOT01,VS,CDISC004,33,DIABP,Diastolic Blood Pressure,STANDING,51,mmHg,51,51,mmHg,,,,3,12,WEEK 24,TREATMENT,2014-03-18,162
CDISCPILOT01,VS,CDISC004,34,HEIGHT,Height,,68.5,in,173.99,173.99,cm,,,,,1,SCREENING 1,SCREENING,2013-10-01,-7
CDISCPILOT01,VS,CDISC004,35,PULSE,Pulse Rate,SUPINE,62,beats/min,62,62,beats/min,,,,1,1,SCREENING 1,SCREENING,2013-10-01,-7
CDISCPILOT01,VS,CDISC004,36,PULSE,Pulse Rate,STANDING,74,beats/min,74,74,beats/min,,,,2,1,SCREENING 1,SCREENING,2013-10-01,-7
CDISCPILOT01,VS,CDISC004,37,PULSE,Pulse Rate,STANDING,80,beats/min,80,80,beats/min,,,,3,1,SCREENING 1,SCREENING,2013-10-01,-7
CDISCPILOT01,VS,CDISC004,38,PULSE,Pulse Rate,SUPINE,61,beats/min,61,61,beats/min,,,,1,2,SCREENING 2,SCREENING,2013-10-06,-2
CDISCPILOT01,VS,CDISC004,39,PULSE,Pulse Rate,STANDING,71,beats/min,71,71,beats/min,,,,2,2,SCREENING 2,SCREENING,2013-10-06,-2
CDISCPILOT01,VS,CDISC004,40,PULSE,Pulse Rate,STANDING,65,beats/min,65,65,beats/min,,,,3,2,SCREENING 2,SCREENING,2013-10-06,-2
CDISCPILOT01,VS,CDISC004,41,PULSE,Pulse Rate,SUPINE,61,beats/min,61,61,beats/min,,,,1,3,BASELINE,SCREENING,2013-10-08,1
CDISCPILOT01,VS,CDISC004,42,PULSE,Pulse Rate,STANDING,68,beats/min,68,68,beats/min,,,,2,3,BASELINE,SCREENING,2013-10-08,1
CDISCPILOT01,VS,CDISC004,43,PULSE,Pulse Rate,STANDING,67,beats/min,67,67,beats/min,,,Y,3,3,BASELINE,SCREENING,2013-10-08,1
CDISCPILOT01,VS,CDISC004,44,PULSE,Pulse Rate,SUPINE,62,beats/min,62,62,beats/min,,,,1,4,WEEK 2,TREATMENT,2013-10-24,17
CDISCPILOT01,VS,CDISC004,45,PULSE,Pulse Rate,STANDING,73,beats/min,73,73,beats/min,,,,2,4,WEEK 2,TREATMENT,2013-10-24,17
CDISCPILOT01,VS,CDISC004,46,PULSE,Pulse Rate,STANDING,74,beats/min,74,74,beats/min,,,,3,4,WEEK 2,TREATMENT,2013-10-24,17
CDISCPILOT01,VS,CDISC004,47,PULSE,Pulse Rate,SUPINE,66,beats/min,66,66,beats/min,,,,1,5,WEEK 4,TREATMENT,2013-11-08,32
CDISCPILOT01,VS,CDISC004,48,PULSE,Pulse Rate,STANDING,87,beats/min,87,87,beats/min,,,,2,5,WEEK 4,TREATMENT,2013-11-08,32
CDISCPILOT01,VS,CDISC004,49,PULSE,Pulse Rate,STANDING,86,beats/min,86,86,beats/min,,,,3,5,WEEK 4,TREATMENT,2013-11-08,32
CDISCPILOT01,VS,CDISC004,50,PULSE,Pulse Rate,SUPINE,62,beats/min,62,62,beats/min,,,,1,7,WEEK 6,TREATMENT,2013-11-19,43
CDISCPILOT01,VS,CDISC004,51,PULSE,Pulse Rate,STANDING,66,beats/min,66,66,beats/min,,,,2,7,WEEK 6,TREATMENT,2013-11-19,43
CDISCPILOT01,VS,CDISC004,52,PULSE,Pulse Rate,STANDING,68,beats/min,68,68,beats/min,,,,3,7,WEEK 6,TREATMENT,2013-11-19,43
CDISCPILOT01,VS,CDISC004,53,PULSE,Pulse Rate,SUPINE,59,beats/min,59,59,beats/min,,,,1,8,WEEK 8,TREATMENT,2013-12-03,57
CDISCPILOT01,VS,CDISC004,54,PULSE,Pulse Rate,STANDING,79,beats/min,79,79,beats/min,,,,2,8,WEEK 8,TREATMENT,2013-12-03,57
CDISCPILOT01,VS,CDISC004,55,PULSE,Pulse Rate,STANDING,83,beats/min,83,83,beats/min,,,,3,8,WEEK 8,TREATMENT,2013-12-03,57
CDISCPILOT01,VS,CDISC004,56,PULSE,Pulse Rate,SUPINE,62,beats/min,62,62,beats/min,,,,1,9,WEEK 12,TREATMENT,2013-12-31,85
CDISCPILOT01,VS,CDISC004,57,PULSE,Pulse Rate,STANDING,67,beats/min,67,67,beats/min,,,,2,9,WEEK 12,TREATMENT,2013-12-31,85
CDISCPILOT01,VS,CDISC004,58,PULSE,Pulse Rate,STANDING,65,beats/min,65,65,beats/min,,,,3,9,WEEK 12,TREATMENT,2013-12-31,85
CDISCPILOT01,VS,CDISC004,59,PULSE,Pulse Rate,SUPINE,66,beats/min,66,66,beats/min,,,,1,10,WEEK 16,TREATMENT,2014-01-27,112
CDISCPILOT01,VS,CDISC004,60,PULSE,Pulse Rate,STANDING,79,beats/min,79,79,beats/min,,,,2,10,WEEK 16,TREATMENT,2014-01-27,112
CDISCPILOT01,VS,CDISC004,61,PULSE,Pulse Rate,STANDING,83,beats/min,83,83,beats/min,,,,3,10,WEEK 16,TREATMENT,2014-01-27,112
CDISCPILOT01,VS,CDISC004,62,PULSE,Pulse Rate,SUPINE,61,beats/min,61,61,beats/min,,,,1,11,WEEK 20,TREATMENT,2014-02-25,141
CDISCPILOT01,VS,CDISC004,63,PULSE,Pulse Rate,STANDING,74,beats/min,74,74,beats/min,,,,2,11,WEEK 20,TREATMENT,2014-02-25,141
CDISCPILOT01,VS,CDISC004,64,PULSE,Pulse Rate,STANDING,75,beats/min,75,75,beats/min,,,,3,11,WEEK 20,TREATMENT,2014-02-25,141
CDISCPILOT01,VS,CDISC004,65,PULSE,Pulse Rate,SUPINE,64,beats/min,64,64,beats/min,,,,1,12,WEEK 24,TREATMENT,2014-03-18,162
CDISCPILOT01,VS,CDISC004,66,PULSE,Pulse Rate,STANDING,82,beats/min,82,82,beats/min,,,,2,12,WEEK 24,TREATMENT,2014-03-18,162
CDISCPILOT01,VS,CDISC004,67,PULSE,Pulse Rate,STANDING,80,beats/min,80,80,beats/min,,,,3,12,WEEK 24,TREATMENT,2014-03-18,162
CDISCPILOT01,VS,CDISC004,68,SYSBP,Systolic Blood Pressure,SUPINE,112,mmHg,112,112,mmHg,,,,1,1,SCREENING 1,SCREENING,2013-10-01,-7
CDISCPILOT01,VS,CDISC004,69,SYSBP,Systolic Blood Pressure,STANDING,110,mmHg,110,110,mmHg,,,,2,1,SCREENING 1,SCREENING,2013-10-01,-7
CDISCPILOT01,VS,CDISC004,70,SYSBP,Systolic Blood Pressure,STANDING,119,mmHg,119,119,mmHg,,,,3,1,SCREENING 1,SCREENING,2013-10-01,-7
CDISCPILOT01,VS,CDISC004,71,SYSBP,Systolic Blood Pressure,SUPINE,130,mmHg,130,130,mmHg,,,,1,2,SCREENING 2,SCREENING,2013-10-06,-2
CDISCPILOT01,VS,CDISC004,72,SYSBP,Systolic Blood Pressure,STANDING,121,mmHg,121,121,mmHg,,,,2,2,SCREENING 2,SCREENING,2013-10-06,-2
CDISCPILOT01,VS,CDISC004,73,SYSBP,Systolic Blood Pressure,STANDING,115,mmHg,115,115,mmHg,,,,3,2,SCREENING 2,SCREENING,2013-10-06,-2
CDISCPILOT01,VS,CDISC004,74,SYSBP,Systolic Blood Pressure,SUPINE,126,mmHg,126,126,mmHg,,,,1,3,BASELINE,SCREENING,2013-10-08,1
CDISCPILOT01,VS,CDISC004,75,SYSBP,Systolic Blood Pressure,STANDING,108,mmHg,108,108,mmHg,,,,2,3,BASELINE,SCREENING,2013-10-08,1
CDISCPILOT01,VS,CDISC004,76,SYSBP,Systolic Blood Pressure,STANDING,116,mmHg,116,116,mmHg,,,Y,3,3,BASELINE,SCREENING,2013-10-08,1
CDISCPILOT01,VS,CDISC004,77,SYSBP,Systolic Blood Pressure,SUPINE,116,mmHg,116,116,mmHg,,,,1,4,WEEK 2,TREATMENT,2013-10-24,17
CDISCPILOT01,VS,CDISC004,78,SYSBP,Systolic Blood Pressure,STANDING,110,mmHg,110,110,mmHg,,,,2,4,WEEK 2,TREATMENT,2013-10-24,17
CDISCPILOT01,VS,CDISC004,79,SYSBP,Systolic Blood Pressure,STANDING,118,mmHg,118,118,mmHg,,,,3,4,WEEK 2,TREATMENT,2013-10-24,17
CDISCPILOT01,VS,CDISC004,80,SYSBP,Systolic Blood Pressure,SUPINE,113,mmHg,113,113,mmHg,,,,1,5,WEEK 4,TREATMENT,2013-11-08,32
CDISCPILOT01,VS,CDISC004,81,SYSBP,Systolic Blood Pressure,STANDING,106,mmHg,106,106,mmHg,,,,2,5,WEEK 4,TREATMENT,2013-11-08,32
CDISCPILOT01,VS,CDISC004,82,SYSBP,Systolic Blood Pressure,STANDING,123,mmHg,123,123,mmHg,,,,3,5,WEEK 4,TREATMENT,2013-11-08,32
CDISCPILOT01,VS,CDISC004,83,SYSBP,Systolic Blood Pressure,SUPINE,129,mmHg,129,129,mmHg,,,,1,7,WEEK 6,TREATMENT,2013-11-19,43
CDISCPILOT01,VS,CDISC004,84,SYSBP,Systolic Blood Pressure,STANDING,122,mmHg,122,122,mmHg,,,,2,7,WEEK 6,TREATMENT,2013-11-19,43
CDISCPILOT01,VS,CDISC004,85,SYSBP,Systolic Blood Pressure,STANDING,115,mmHg,115,115,mmHg,,,,3,7,WEEK 6,TREATMENT,2013-11-19,43
CDISCPILOT01,VS,CDISC004,86,SYSBP,Systolic Blood Pressure,SUPINE,115,mmHg,115,115,mmHg,,,,1,8,WEEK 8,TREATMENT,2013-12-03,57
CDISCPILOT01,VS,CDISC004,87,SYSBP,Systolic Blood Pressure,STANDING,105,mmHg,105,105,mmHg,,,,2,8,WEEK 8,TREATMENT,2013-12-03,57
CDISCPILOT01,VS,CDISC004,88,SYSBP,Systolic Blood Pressure,STANDING,108,mmHg,108,108,mmHg,,,,3,8,WEEK 8,TREATMENT,2013-12-03,57
CDISCPILOT01,VS,CDISC004,89,SYSBP,Systolic Blood Pressure,SUPINE,121,mmHg,121,121,mmHg,,,,1,9,WEEK 12,TREATMENT,2013-12-31,85
CDISCPILOT01,VS,CDISC004,90,SYSBP,Systolic Blood Pressure,STANDING,113,mmHg,113,113,mmHg,,,,2,9,WEEK 12,TREATMENT,2013-12-31,85
CDISCPILOT01,VS,CDISC004,91,SYSBP,Systolic Blood Pressure,STANDING,121,mmHg,121,121,mmHg,,,,3,9,WEEK 12,TREATMENT,2013-12-31,85
CDISCPILOT01,VS,CDISC004,92,SYSBP,Systolic Blood Pressure,SUPINE,120,mmHg,120,120,mmHg,,,,1,10,WEEK 16,TREATMENT,2014-01-27,112
CDISCPILOT01,VS,CDISC004,93,SYSBP,Systolic Blood Pressure,STANDING,114,mmHg,114,114,mmHg,,,,2,10,WEEK 16,TREATMENT,2014-01-27,112
CDISCPILOT01,VS,CDISC004,94,SYSBP,Systolic Blood Pressure,STANDING,123,mmHg,123,123,mmHg,,,,3,10,WEEK 16,TREATMENT,2014-01-27,112
CDISCPILOT01,VS,CDISC004,95,SYSBP,Systolic Blood Pressure,SUPINE,113,mmHg,113,113,mmHg,,,,1,11,WEEK 20,TREATMENT,2014-02-25,141
CDISCPILOT01,VS,CDISC004,96,SYSBP,Systolic Blood Pressure,STANDING,104,mmHg,104,104,mmHg,,,,2,11,WEEK 20,TREATMENT,2014-02-25,141
CDISCPILOT01,VS,CDISC004,97,SYSBP,Systolic Blood Pressure,STANDING,122,mmHg,122,122,mmHg,,,,3,11,WEEK 20,TREATMENT,2014-02-25,141
CDISCPILOT01,VS,CDISC004,98,SYSBP,Systolic Blood Pressure,SUPINE,122,mmHg,122,122,mmHg,,,,1,12,WEEK 24,TREATMENT,2014-03-18,162
CDISCPILOT01,VS,CDISC004,99,SYSBP,Systolic Blood Pressure,STANDING,120,mmHg,120,120,mmHg,,,,2,12,WEEK 24,TREATMENT,2014-03-18,162
CDISCPILOT01,VS,CDISC004,100,SYSBP,Systolic Blood Pressure,STANDING,113,mmHg,113,113,mmHg,,,,3,12,WEEK 24,TREATMENT,2014-03-18,162
CDISCPILOT01,VS,CDISC004,101,TEMP,Temperature,,98.5,F,36.94,36.94,C,,ORAL CAVITY,,,1,SCREENING 1,SCREENING,2013-10-01,-7
CDISCPILOT01,VS,CDISC004,102,TEMP,Temperature,,98.0,F,36.67,36.67,C,,ORAL CAVITY,,,2,SCREENING 2,SCREENING,2013-10-06,-2
CDISCPILOT01,VS,CDISC004,103,TEMP,Temperature,,97.6,F,36.44,36.44,C,,ORAL CAVITY,Y,,3,BASELINE,SCREENING,2013-10-08,1
CDISCPILOT01,VS,CDISC004,104,TEMP,Temperature,,98.8,F,37.11,37.11,C,,ORAL CAVITY,,,4,WEEK 2,TREATMENT,2013-10-24,17
CDISCPILOT01,VS,CDISC004,105,TEMP,Temperature,,98.9,F,37.17,37.17,C,,ORAL CAVITY,,,5,WEEK 4,TREATMENT,2013-11-08,32
CDISCPILOT01,VS,CDISC004,106,TEMP,Temperature,,97.2,F,36.22,36.22,C,,ORAL CAVITY,,,7,WEEK 6,TREATMENT,2013-11-19,43
CDISCPILOT01,VS,CDISC004,107,TEMP,Temperature,,98.9,F,37.17,37.17,C,,ORAL CAVITY,,,8,WEEK 8,TREATMENT,2013-12-03,57
CDISCPILOT01,VS,CDISC004,108,TEMP,Temperature,,98.4,F,36.89,36.89,C,,ORAL CAVITY,,,9,WEEK 12,TREATMENT,2013-12-31,85
CDISCPILOT01,VS,CDISC004,109,TEMP,Temperature,,97.7,F,36.5,36.5,C,,ORAL CAVITY,,,10,WEEK 16,TREATMENT,2014-01-27,112
CDISCPILOT01,VS,CDISC004,110,TEMP,Temperature,,98.2,F,36.78,36.78,C,,ORAL CAVITY,,,11,WEEK 20,TREATMENT,2014-02-25,141
CDISCPILOT01,VS,CDISC004,111,TEMP,Temperature,,97.8,F,36.56,36.56,C,,ORAL CAVITY,,,12,WEEK 24,TREATMENT,2014-03-18,162
CDISCPILOT01,VS,CDISC004,112,WEIGHT,Weight,,123.0,LB,55.79,55.79,kg,,,,,1,SCREENING 1,SCREENING,2013-10-01,-7
CDISCPILOT01,VS,CDISC004,113,WEIGHT,Weight,,124.0,LB,56.25,56.25,kg,,,Y,,3,BASELINE,SCREENING,2013-10-08,1
CDISCPILOT01,VS,CDISC004,114,WEIGHT,Weight,,124.0,LB,56.25,56.25,kg,,,,,4,WEEK 2,TREATMENT,2013-10-24,17
CDISCPILOT01,VS,CDISC004,115,WEIGHT,Weight,,124.0,LB,56.25,56.25,kg,,,,,5,WEEK 4,TREATMENT,2013-11-08,32
CDISCPILOT01,VS,CDISC004,116,WEIGHT,Weight,,125.0,LB,56.7,56.7,kg,,,,,7,WEEK 6,TREATMENT,2013-11-19,43
CDISCPILOT01,VS,CDISC004,117,WEIGHT,Weight,,124.0,LB,56.25,56.25,kg,,,,,8,WEEK 8,TREATMENT,2013-12-03,57
CDISCPILOT01,VS,CDISC004,118,WEIGHT,Weight,,124.0,LB,56.25,56.25,kg,,,,,9,WEEK 12,TREATMENT,2013-12-31,85
CDISCPILOT01,VS,CDISC004,119,WEIGHT,Weight,,125.0,LB,56.7,56.7,kg,,,,,10,WEEK 16,TREATMENT,2014-01-27,112
CDISCPILOT01,VS,CDISC004,120,WEIGHT,Weight,,126.0,LB,57.15,57.15,kg,,,,,11,WEEK 20,TREATMENT,2014-02-25,141
CDISCPILOT01,VS,CDISC004,121,WEIGHT,Weight,,126.0,LB,57.15,57.15,kg,,,,,12,WEEK 24,TREATMENT,2014-03-18,162
CDISCPILOT01,VS,CDISC005,1,DIABP,Diastolic Blood Pressure,SUPINE,72,mmHg,72,72,mmHg,,,,1,1,SCREENING 1,SCREENING,2013-01-22,-13
CDISCPILOT01,VS,CDISC005,2,DIABP,Diastolic Blood Pressure,STANDING,66,mmHg,66,66,mmHg,,,,2,1,SCREENING 1,SCREENING,2013-01-22,-13
CDISCPILOT01,VS,CDISC005,3,DIABP,Diastolic Blood Pressure,STANDING,66,mmHg,66,66,mmHg,,,,3,1,SCREENING 1,SCREENING,2013-01-22,-13
CDISCPILOT01,VS,CDISC005,4,DIABP,Diastolic Blood Pressure,SUPINE,56,mmHg,56,56,mmHg,,,,1,2,SCREENING 2,SCREENING,2013-02-02,-2
CDISCPILOT01,VS,CDISC005,5,DIABP,Diastolic Blood Pressure,STANDING,71,mmHg,71,71,mmHg,,,,2,2,SCREENING 2,SCREENING,2013-02-02,-2
CDISCPILOT01,VS,CDISC005,6,DIABP,Diastolic Blood Pressure,STANDING,74,mmHg,74,74,mmHg,,,,3,2,SCREENING 2,SCREENING,2013-02-02,-2
CDISCPILOT01,VS,CDISC005,7,DIABP,Diastolic Blood Pressure,SUPINE,63,mmHg,63,63,mmHg,,,,1,3,BASELINE,SCREENING,2013-02-04,1
CDISCPILOT01,VS,CDISC005,8,DIABP,Diastolic Blood Pressure,STANDING,60,mmHg,60,60,mmHg,,,,2,3,BASELINE,SCREENING,2013-02-04,1
CDISCPILOT01,VS,CDISC005,9,DIABP,Diastolic Blood Pressure,STANDING,65,mmHg,65,65,mmHg,,,Y,3,3,BASELINE,SCREENING,2013-02-04,1
CDISCPILOT01,VS,CDISC005,10,DIABP,Diastolic Blood Pressure,SUPINE,66,mmHg,66,66,mmHg,,,,1,4,WEEK 2,TREATMENT,2013-02-19,16
CDISCPILOT01,VS,CDISC005,11,DIABP,Diastolic Blood Pressure,STANDING,56,mmHg,56,56,mmHg,,,,2,4,WEEK 2,TREATMENT,2013-02-19,16
CDISCPILOT01,VS,CDISC005,12,DIABP,Diastolic Blood Pressure,STANDING,66,mmHg,66,66,mmHg,,,,3,4,WEEK 2,TREATMENT,2013-02-19,16
CDISCPILOT01,VS,CDISC005,13,DIABP,Diastolic Blood Pressure,SUPINE,54,mmHg,54,54,mmHg,,,,1,5,WEEK 4,TREATMENT,2013-03-12,37
CDISCPILOT01,VS,CDISC005,14,DIABP,Diastolic Blood Pressure,STANDING,62,mmHg,62,62,mmHg,,,,2,5,WEEK 4,TREATMENT,2013-03-12,37
CDISCPILOT01,VS,CDISC005,15,DIABP,Diastolic Blood Pressure,STANDING,64,mmHg,64,64,mmHg,,,,3,5,WEEK 4,TREATMENT,2013-03-12,37
CDISCPILOT01,VS,CDISC005,16,DIABP,Diastolic Blood Pressure,SUPINE,64,mmHg,64,64,mmHg,,,,1,7,WEEK 6,TREATMENT,2013-03-19,44
CDISCPILOT01,VS,CDISC005,17,DIABP,Diastolic Blood Pressure,STANDING,54,mmHg,54,54,mmHg,,,,2,7,WEEK 6,TREATMENT,2013-03-19,44
CDISCPILOT01,VS,CDISC005,18,DIABP,Diastolic Blood Pressure,STANDING,60,mmHg,60,60,mmHg,,,,3,7,WEEK 6,TREATMENT,2013-03-19,44
CDISCPILOT01,VS,CDISC005,19,DIABP,Diastolic Blood Pressure,SUPINE,63,mmHg,63,63,mmHg,,,,1,8,WEEK 8,TREATMENT,2013-04-02,58
CDISCPILOT01,VS,CDISC005,20,DIABP,Diastolic Blood Pressure,STANDING,54,mmHg,54,54,mmHg,,,,2,8,WEEK 8,TREATMENT,2013-04-02,58
CDISCPILOT01,VS,CDISC005,21,DIABP,Diastolic Blood Pressure,STANDING,61,mmHg,61,61,mmHg,,,,3,8,WEEK 8,TREATMENT,2013-04-02,58
CDISCPILOT01,VS,CDISC005,22,DIABP,Diastolic Blood Pressure,SUPINE,56,mmHg,56,56,mmHg,,,,1,9,WEEK 12,TREATMENT,2013-04-30,86
CDISCPILOT01,VS,CDISC005,23,DIABP,Diastolic Blood Pressure,STANDING,60,mmHg,60,60,mmHg,,,,2,9,WEEK 12,TREATMENT,2013-04-30,86
CDISCPILOT01,VS,CDISC005,24,DIABP,Diastolic Blood Pressure,STANDING,60,mmHg,60,60,mmHg,,,,3,9,WEEK 12,TREATMENT,2013-04-30,86
CDISCPILOT01,VS,CDISC005,25,DIABP,Diastolic Blood Pressure,SUPINE,62,mmHg,62,62,mmHg,,,,1,10,WEEK 16,TREATMENT,2013-05-30,116
CDISCPILOT01,VS,CDISC005,26,DIABP,Diastolic Blood Pressure,STANDING,60,mmHg,60,60,mmHg,,,,2,10,WEEK 16,TREATMENT,2013-05-30,116
CDISCPILOT01,VS,CDISC005,27,DIABP,Diastolic Blood Pressure,STANDING,64,mmHg,64,64,mmHg,,,,3,10,WEEK 16,TREATMENT,2013-05-30,116
CDISCPILOT01,VS,CDISC005,28,DIABP,Diastolic Blood Pressure,SUPINE,58,mmHg,58,58,mmHg,,,,1,11,WEEK 20,TREATMENT,2013-06-25,142
CDISCPILOT01,VS,CDISC005,29,DIABP,Diastolic Blood Pressure,STANDING,54,mmHg,54,54,mmHg,,,,2,11,WEEK 20,TREATMENT,2013-06-25,142
CDISCPILOT01,VS,CDISC005,30,DIABP,Diastolic Blood Pressure,STANDING,66,mmHg,66,66,mmHg,,,,3,11,WEEK 20,TREATMENT,2013-06-25,142
CDISCPILOT01,VS,CDISC005,31,DIABP,Diastolic Blood Pressure,SUPINE,68,mmHg,68,68,mmHg,,,,1,12,WEEK 24,TREATMENT,2013-07-30,177
CDISCPILOT01,VS,CDISC005,32,DIABP,Diastolic Blood Pressure,STANDING,60,mmHg,60,60,mmHg,,,,2,12,WEEK 24,TREATMENT,2013-07-30,177
CDISCPILOT01,VS,CDISC005,33,DIABP,Diastolic Blood Pressure,STANDING,62,mmHg,62,62,mmHg,,,,3,12,WEEK 24,TREATMENT,2013-07-30,177
CDISCPILOT01,VS,CDISC005,34,DIABP,Diastolic Blood Pressure,SUPINE,62,mmHg,62,62,mmHg,,,,1,13,WEEK 26,TREATMENT,2013-08-06,184
CDISCPILOT01,VS,CDISC005,35,DIABP,Diastolic Blood Pressure,STANDING,56,mmHg,56,56,mmHg,,,,2,13,WEEK 26,TREATMENT,2013-08-06,184
CDISCPILOT01,VS,CDISC005,36,DIABP,Diastolic Blood Pressure,STANDING,59,mmHg,59,59,mmHg,,,,3,13,WEEK 26,TREATMENT,2013-08-06,184
CDISCPILOT01,VS,CDISC005,37,HEIGHT,Height,,64.5,in,163.83,163.83,cm,,,,,1,SCREENING 1,SCREENING,2013-01-22,-13
CDISCPILOT01,VS,CDISC005,38,PULSE,Pulse Rate,SUPINE,70,beats/min,70,70,beats/min,,,,1,1,SCREENING 1,SCREENING,2013-01-22,-13
CDISCPILOT01,VS,CDISC005,39,PULSE,Pulse Rate,STANDING,77,beats/min,77,77,beats/min,,,,2,1,SCREENING 1,SCREENING,2013-01-22,-13
CDISCPILOT01,VS,CDISC005,40,PULSE,Pulse Rate,STANDING,80,beats/min,80,80,beats/min,,,,3,1,SCREENING 1,SCREENING,2013-01-22,-13
CDISCPILOT01,VS,CDISC005,41,PULSE,Pulse Rate,SUPINE,80,beats/min,80,80,beats/min,,,,1,2,SCREENING 2,SCREENING,2013-02-02,-2
CDISCPILOT01,VS,CDISC005,42,PULSE,Pulse Rate,STANDING,89,beats/min,89,89,beats/min,,,,2,2,SCREENING 2,SCREENING,2013-02-02,-2
CDISCPILOT01,VS,CDISC005,43,PULSE,Pulse Rate,STANDING,94,beats/min,94,94,beats/min,,,,3,2,SCREENING 2,SCREENING,2013-02-02,-2
CDISCPILOT01,VS,CDISC005,44,PULSE,Pulse Rate,SUPINE,77,beats/min,77,77,beats/min,,,,1,3,BASELINE,SCREENING,2013-02-04,1
CDISCPILOT01,VS,CDISC005,45,PULSE,Pulse Rate,STANDING,87,beats/min,87,87,beats/min,,,,2,3,BASELINE,SCREENING,2013-02-04,1
CDISCPILOT01,VS,CDISC005,46,PULSE,Pulse Rate,STANDING,89,beats/min,89,89,beats/min,,,Y,3,3,BASELINE,SCREENING,2013-02-04,1
CDISCPILOT01,VS,CDISC005,47,PULSE,Pulse Rate,SUPINE,84,beats/min,84,84,beats/min,,,,1,4,WEEK 2,TREATMENT,2013-02-19,16
CDISCPILOT01,VS,CDISC005,48,PULSE,Pulse Rate,STANDING,88,beats/min,88,88,beats/min,,,,2,4,WEEK 2,TREATMENT,2013-02-19,16
CDISCPILOT01,VS,CDISC005,49,PULSE,Pulse Rate,STANDING,88,beats/min,88,88,beats/min,,,,3,4,WEEK 2,TREATMENT,2013-02-19,16
CDISCPILOT01,VS,CDISC005,50,PULSE,Pulse Rate,SUPINE,70,beats/min,70,70,beats/min,,,,1,5,WEEK 4,TREATMENT,2013-03-12,37
CDISCPILOT01,VS,CDISC005,51,PULSE,Pulse Rate,STANDING,82,beats/min,82,82,beats/min,,,,2,5,WEEK 4,TREATMENT,2013-03-12,37
CDISCPILOT01,VS,CDISC005,52,PULSE,Pulse Rate,STANDING,78,beats/min,78,78,beats/min,,,,3,5,WEEK 4,TREATMENT,2013-03-12,37
CDISCPILOT01,VS,CDISC005,53,PULSE,Pulse Rate,SUPINE,80,beats/min,80,80,beats/min,,,,1,7,WEEK 6,TREATMENT,2013-03-19,44
CDISCPILOT01,VS,CDISC005,54,PULSE,Pulse Rate,STANDING,88,beats/min,88,88,beats/min,,,,2,7,WEEK 6,TREATMENT,2013-03-19,44
CDISCPILOT01,VS,CDISC005,55,PULSE,Pulse Rate,STANDING,86,beats/min,86,86,beats/min,,,,3,7,WEEK 6,TREATMENT,2013-03-19,44
CDISCPILOT01,VS,CDISC005,56,PULSE,Pulse Rate,SUPINE,70,beats/min,70,70,beats/min,,,,1,8,WEEK 8,TREATMENT,2013-04-02,58
CDISCPILOT01,VS,CDISC005,57,PULSE,Pulse Rate,STANDING,86,beats/min,86,86,beats/min,,,,2,8,WEEK 8,TREATMENT,2013-04-02,58
CDISCPILOT01,VS,CDISC005,58,PULSE,Pulse Rate,STANDING,81,beats/min,81,81,beats/min,,,,3,8,WEEK 8,TREATMENT,2013-04-02,58
CDISCPILOT01,VS,CDISC005,59,PULSE,Pulse Rate,SUPINE,63,beats/min,63,63,beats/min,,,,1,9,WEEK 12,TREATMENT,2013-04-30,86
CDISCPILOT01,VS,CDISC005,60,PULSE,Pulse Rate,STANDING,81,beats/min,81,81,beats/min,,,,2,9,WEEK 12,TREATMENT,2013-04-30,86
CDISCPILOT01,VS,CDISC005,61,PULSE,Pulse Rate,STANDING,76,beats/min,76,76,beats/min,,,,3,9,WEEK 12,TREATMENT,2013-04-30,86
CDISCPILOT01,VS,CDISC005,62,PULSE,Pulse Rate,SUPINE,70,beats/min,70,70,beats/min,,,,1,10,WEEK 16,TREATMENT,2013-05-30,116
CDISCPILOT01,VS,CDISC005,63,PULSE,Pulse Rate,STANDING,82,beats/min,82,82,beats/min,,,,2,10,WEEK 16,TREATMENT,2013-05-30,116
CDISCPILOT01,VS,CDISC005,64,PULSE,Pulse Rate,STANDING,78,beats/min,78,78,beats/min,,,,3,10,WEEK 16,TREATMENT,2013-05-30,116
CDISCPILOT01,VS,CDISC005,65,PULSE,Pulse Rate,SUPINE,73,beats/min,73,73,beats/min,,,,1,11,WEEK 20,TREATMENT,2013-06-25,142
CDISCPILOT01,VS,CDISC005,66,PULSE,Pulse Rate,STANDING,86,beats/min,86,86,beats/min,,,,2,11,WEEK 20,TREATMENT,2013-06-25,142
CDISCPILOT01,VS,CDISC005,67,PULSE,Pulse Rate,STANDING,85,beats/min,85,85,beats/min,,,,3,11,WEEK 20,TREATMENT,2013-06-25,142
CDISCPILOT01,VS,CDISC005,68,PULSE,Pulse Rate,SUPINE,92,beats/min,92,92,beats/min,,,,1,12,WEEK 24,TREATMENT,2013-07-30,177
CDISCPILOT01,VS,CDISC005,69,PULSE,Pulse Rate,STANDING,98,beats/min,98,98,beats/min,,,,2,12,WEEK 24,TREATMENT,2013-07-30,177
CDISCPILOT01,VS,CDISC005,70,PULSE,Pulse Rate,STANDING,96,beats/min,96,96,beats/min,,,,3,12,WEEK 24,TREATMENT,2013-07-30,177
CDISCPILOT01,VS,CDISC005,71,PULSE,Pulse Rate,SUPINE,79,beats/min,79,79,beats/min,,,,1,13,WEEK 26,TREATMENT,2013-08-06,184
CDISCPILOT01,VS,CDISC005,72,PULSE,Pulse Rate,STANDING,86,beats/min,86,86,beats/min,,,,2,13,WEEK 26,TREATMENT,2013-08-06,184
CDISCPILOT01,VS,CDISC005,73,PULSE,Pulse Rate,STANDING,88,beats/min,88,88,beats/min,,,,3,13,WEEK 26,TREATMENT,2013-08-06,184
CDISCPILOT01,VS,CDISC005,74,SYSBP,Systolic Blood Pressure,SUPINE,146,mmHg,146,146,mmHg,,,,1,1,SCREENING 1,SCREENING,2013-01-22,-13
CDISCPILOT01,VS,CDISC005,75,SYSBP,Systolic Blood Pressure,STANDING,146,mmHg,146,146,mmHg,,,,2,1,SCREENING 1,SCREENING,2013-01-22,-13
CDISCPILOT01,VS,CDISC005,76,SYSBP,Systolic Blood Pressure,STANDING,138,mmHg,138,138,mmHg,,,,3,1,SCREENING 1,SCREENING,2013-01-22,-13
CDISCPILOT01,VS,CDISC005,77,SYSBP,Systolic Blood Pressure,SUPINE,129,mmHg,129,129,mmHg,,,,1,2,SCREENING 2,SCREENING,2013-02-02,-2
CDISCPILOT01,VS,CDISC005,78,SYSBP,Systolic Blood Pressure,STANDING,136,mmHg,136,136,mmHg,,,,2,2,SCREENING 2,SCREENING,2013-02-02,-2
CDISCPILOT01,VS,CDISC005,79,SYSBP,Systolic Blood Pressure,STANDING,131,mmHg,131,131,mmHg,,,,3,2,SCREENING 2,SCREENING,2013-02-02,-2
CDISCPILOT01,VS,CDISC005,80,SYSBP,Systolic Blood Pressure,SUPINE,137,mmHg,137,137,mmHg,,,,1,3,BASELINE,SCREENING,2013-02-04,1
CDISCPILOT01,VS,CDISC005,81,SYSBP,Systolic Blood Pressure,STANDING,138,mmHg,138,138,mmHg,,,,2,3,BASELINE,SCREENING,2013-02-04,1
CDISCPILOT01,VS,CDISC005,82,SYSBP,Systolic Blood Pressure,STANDING,131,mmHg,131,131,mmHg,,,Y,3,3,BASELINE,SCREENING,2013-02-04,1
CDISCPILOT01,VS,CDISC005,83,SYSBP,Systolic Blood Pressure,SUPINE,138,mmHg,138,138,mmHg,,,,1,4,WEEK 2,TREATMENT,2013-02-19,16
CDISCPILOT01,VS,CDISC005,84,SYSBP,Systolic Blood Pressure,STANDING,130,mmHg,130,130,mmHg,,,,2,4,WEEK 2,TREATMENT,2013-02-19,16
CDISCPILOT01,VS,CDISC005,85,SYSBP,Systolic Blood Pressure,STANDING,138,mmHg,138,138,mmHg,,,,3,4,WEEK 2,TREATMENT,2013-02-19,16
CDISCPILOT01,VS,CDISC005,86,SYSBP,Systolic Blood Pressure,SUPINE,132,mmHg,132,132,mmHg,,,,1,5,WEEK 4,TREATMENT,2013-03-12,37
CDISCPILOT01,VS,CDISC005,87,SYSBP,Systolic Blood Pressure,STANDING,117,mmHg,117,117,mmHg,,,,2,5,WEEK 4,TREATMENT,2013-03-12,37
CDISCPILOT01,VS,CDISC005,88,SYSBP,Systolic Blood Pressure,STANDING,138,mmHg,138,138,mmHg,,,,3,5,WEEK 4,TREATMENT,2013-03-12,37
CDISCPILOT01,VS,CDISC005,89,SYSBP,Systolic Blood Pressure,SUPINE,129,mmHg,129,129,mmHg,,,,1,7,WEEK 6,TREATMENT,2013-03-19,44
CDISCPILOT01,VS,CDISC005,90,SYSBP,Systolic Blood Pressure,STANDING,129,mmHg,129,129,mmHg,,,,2,7,WEEK 6,TREATMENT,2013-03-19,44
CDISCPILOT01,VS,CDISC005,91,SYSBP,Systolic Blood Pressure,STANDING,129,mmHg,129,129,mmHg,,,,3,7,WEEK 6,TREATMENT,2013-03-19,44
CDISCPILOT01,VS,CDISC005,92,SYSBP,Systolic Blood Pressure,SUPINE,144,mmHg,144,144,mmHg,,,,1,8,WEEK 8,TREATMENT,2013-04-02,58
CDISCPILOT01,VS,CDISC005,93,SYSBP,Systolic Blood Pressure,STANDING,137,mmHg,137,137,mmHg,,,,2,8,WEEK 8,TREATMENT,2013-04-02,58
CDISCPILOT01,VS,CDISC005,94,SYSBP,Systolic Blood Pressure,STANDING,138,mmHg,138,138,mmHg,,,,3,8,WEEK 8,TREATMENT,2013-04-02,58
CDISCPILOT01,VS,CDISC005,95,SYSBP,Systolic Blood Pressure,SUPINE,114,mmHg,114,114,mmHg,,,,1,9,WEEK 12,TREATMENT,2013-04-30,86
CDISCPILOT01,VS,CDISC005,96,SYSBP,Systolic Blood Pressure,STANDING,122,mmHg,122,122,mmHg,,,,2,9,WEEK 12,TREATMENT,2013-04-30,86
CDISCPILOT01,VS,CDISC005,97,SYSBP,Systolic Blood Pressure,STANDING,122,mmHg,122,122,mmHg,,,,3,9,WEEK 12,TREATMENT,2013-04-30,86
CDISCPILOT01,VS,CDISC005,98,SYSBP,Systolic Blood Pressure,SUPINE,138,mmHg,138,138,mmHg,,,,1,10,WEEK 16,TREATMENT,2013-05-30,116
CDISCPILOT01,VS,CDISC005,99,SYSBP,Systolic Blood Pressure,STANDING,130,mmHg,130,130,mmHg,,,,2,10,WEEK 16,TREATMENT,2013-05-30,116
CDISCPILOT01,VS,CDISC005,100,SYSBP,Systolic Blood Pressure,STANDING,140,mmHg,140,140,mmHg,,,,3,10,WEEK 16,TREATMENT,2013-05-30,116
CDISCPILOT01,VS,CDISC005,101,SYSBP,Systolic Blood Pressure,SUPINE,131,mmHg,131,131,mmHg,,,,1,11,WEEK 20,TREATMENT,2013-06-25,142
CDISCPILOT01,VS,CDISC005,102,SYSBP,Systolic Blood Pressure,STANDING,139,mmHg,139,139,mmHg,,,,2,11,WEEK 20,TREATMENT,2013-06-25,142
CDISCPILOT01,VS,CDISC005,103,SYSBP,Systolic Blood Pressure,STANDING,132,mmHg,132,132,mmHg,,,,3,11,WEEK 20,TREATMENT,2013-06-25,142
CDISCPILOT01,VS,CDISC005,104,SYSBP,Systolic Blood Pressure,SUPINE,142,mmHg,142,142,mmHg,,,,1,12,WEEK 24,TREATMENT,2013-07-30,177
CDISCPILOT01,VS,CDISC005,105,SYSBP,Systolic Blood Pressure,STANDING,128,mmHg,128,128,mmHg,,,,2,12,WEEK 24,TREATMENT,2013-07-30,177
CDISCPILOT01,VS,CDISC005,106,SYSBP,Systolic Blood Pressure,STANDING,132,mmHg,132,132,mmHg,,,,3,12,WEEK 24,TREATMENT,2013-07-30,177
CDISCPILOT01,VS,CDISC005,107,SYSBP,Systolic Blood Pressure,SUPINE,130,mmHg,130,130,mmHg,,,,1,13,WEEK 26,TREATMENT,2013-08-06,184
CDISCPILOT01,VS,CDISC005,108,SYSBP,Systolic Blood Pressure,STANDING,115,mmHg,115,115,mmHg,,,,2,13,WEEK 26,TREATMENT,2013-08-06,184
CDISCPILOT01,VS,CDISC005,109,SYSBP,Systolic Blood Pressure,STANDING,123,mmHg,123,123,mmHg,,,,3,13,WEEK 26,TREATMENT,2013-08-06,184
CDISCPILOT01,VS,CDISC005,110,TEMP,Temperature,,97.3,F,36.28,36.28,C,,ORAL CAVITY,,,1,SCREENING 1,SCREENING,2013-01-22,-13
CDISCPILOT01,VS,CDISC005,111,TEMP,Temperature,,98.2,F,36.78,36.78,C,,ORAL CAVITY,,,2,SCREENING 2,SCREENING,2013-02-02,-2
CDISCPILOT01,VS,CDISC005,112,TEMP,Temperature,,97.7,F,36.5,36.5,C,,ORAL CAVITY,,,3,BASELINE,SCREENING,2013-02-04,1
CDISCPILOT01,VS,CDISC005,113,TEMP,Temperature,,98.2,F,36.78,36.78,C,,ORAL CAVITY,,,4,WEEK 2,TREATMENT,2013-02-19,16
CDISCPILOT01,VS,CDISC005,114,TEMP,Temperature,,98.0,F,36.67,36.67,C,,ORAL CAVITY,,,5,WEEK 4,TREATMENT,2013-03-12,37
CDISCPILOT01,VS,CDISC005,115,TEMP,Temperature,,98.2,F,36.78,36.78,C,,ORAL CAVITY,,,7,WEEK 6,TREATMENT,2013-03-19,44
CDISCPILOT01,VS,CDISC005,116,TEMP,Temperature,,97.5,F,36.39,36.39,C,,ORAL CAVITY,,,8,WEEK 8,TREATMENT,2013-04-02,58
CDISCPILOT01,VS,CDISC005,117,TEMP,Temperature,,98.5,F,36.94,36.94,C,,ORAL CAVITY,,,9,WEEK 12,TREATMENT,2013-04-30,86
CDISCPILOT01,VS,CDISC005,118,TEMP,Temperature,,97.5,F,36.39,36.39,C,,ORAL CAVITY,,,10,WEEK 16,TREATMENT,2013-05-30,116
CDISCPILOT01,VS,CDISC005,119,TEMP,Temperature,,98.0,F,36.67,36.67,C,,ORAL CAVITY,,,11,WEEK 20,TREATMENT,2013-06-25,142
CDISCPILOT01,VS,CDISC005,120,TEMP,Temperature,,97.6,F,36.44,36.44,C,,ORAL CAVITY,,,12,WEEK 24,TREATMENT,2013-07-30,177
CDISCPILOT01,VS,CDISC005,121,TEMP,Temperature,,97.5,F,36.39,36.39,C,,ORAL CAVITY,,,13,WEEK 26,TREATMENT,2013-08-06,184
CDISCPILOT01,VS,CDISC005,122,WEIGHT,Weight,,187.0,LB,84.82,84.82,kg,,,,,1,SCREENING 1,SCREENING,2013-01-22,-13
CDISCPILOT01,VS,CDISC005,123,WEIGHT,Weight,,187.0,LB,84.82,84.82,kg,,,,,3,BASELINE,SCREENING,2013-02-04,1
CDISCPILOT01,VS,CDISC005,124,WEIGHT,Weight,,190.0,LB,86.18,86.18,kg,,,,,4,WEEK 2,TREATMENT,2013-02-19,16
CDISCPILOT01,VS,CDISC005,125,WEIGHT,Weight,,188.0,LB,85.28,85.28,kg,,,,,5,WEEK 4,TREATMENT,2013-03-12,37
CDISCPILOT01,VS,CDISC005,126,WEIGHT,Weight,,188.0,LB,85.28,85.28,kg,,,,,7,WEEK 6,TREATMENT,2013-03-19,44
CDISCPILOT01,VS,CDISC005,127,WEIGHT,Weight,,188.0,LB,85.28,85.28,kg,,,,,8,WEEK 8,TREATMENT,2013-04-02,58
CDISCPILOT01,VS,CDISC005,128,WEIGHT,Weight,,186.0,LB,84.37,84.37,kg,,,,,9,WEEK 12,TREATMENT,2013-04-30,86
CDISCPILOT01,VS,CDISC005,129,WEIGHT,Weight,,187.0,LB,84.82,84.82,kg,,,,,10,WEEK 16,TREATMENT,2013-05-30,116
CDISCPILOT01,VS,CDISC005,130,WEIGHT,Weight,,186.0,LB,84.37,84.37,kg,,,,,11,WEEK 20,TREATMENT,2013-06-25,142
CDISCPILOT01,VS,CDISC005,131,WEIGHT,Weight,,183.0,LB,83.01,83.01,kg,,,,,12,WEEK 24,TREATMENT,2013-07-30,177
CDISCPILOT01,VS,CDISC005,132,WEIGHT,Weight,,183.0,LB,83.01,83.01,kg,,,,,13,WEEK 26,TREATMENT,2013-08-06,184
CDISCPILOT01,VS,CDISC008,1,DIABP,Diastolic Blood Pressure,SUPINE,76,mmHg,76,76,mmHg,,,,1,1,SCREENING 1,SCREENING,2014-05-01,-10
CDISCPILOT01,VS,CDISC008,2,DIABP,Diastolic Blood Pressure,STANDING,70,mmHg,70,70,mmHg,,,,2,1,SCREENING 1,SCREENING,2014-05-01,-10
CDISCPILOT01,VS,CDISC008,3,DIABP,Diastolic Blood Pressure,STANDING,72,mmHg,72,72,mmHg,,,,3,1,SCREENING 1,SCREENING,2014-05-01,-10
CDISCPILOT01,VS,CDISC008,4,DIABP,Diastolic Blood Pressure,SUPINE,80,mmHg,80,80,mmHg,,,,1,2,SCREENING 2,SCREENING,2014-05-09,-2
CDISCPILOT01,VS,CDISC008,5,DIABP,Diastolic Blood Pressure,STANDING,82,mmHg,82,82,mmHg,,,,2,2,SCREENING 2,SCREENING,2014-05-09,-2
CDISCPILOT01,VS,CDISC008,6,DIABP,Diastolic Blood Pressure,STANDING,78,mmHg,78,78,mmHg,,,,3,2,SCREENING 2,SCREENING,2014-05-09,-2
CDISCPILOT01,VS,CDISC008,7,DIABP,Diastolic Blood Pressure,SUPINE,72,mmHg,72,72,mmHg,,,,1,3,BASELINE,SCREENING,2014-05-11,1
CDISCPILOT01,VS,CDISC008,8,DIABP,Diastolic Blood Pressure,STANDING,76,mmHg,76,76,mmHg,,,,2,3,BASELINE,SCREENING,2014-05-11,1
CDISCPILOT01,VS,CDISC008,9,DIABP,Diastolic Blood Pressure,STANDING,78,mmHg,78,78,mmHg,,,Y,3,3,BASELINE,SCREENING,2014-05-11,1
CDISCPILOT01,VS,CDISC008,10,DIABP,Diastolic Blood Pressure,SUPINE,74,mmHg,74,74,mmHg,,,,1,4,WEEK 2,TREATMENT,2014-05-25,15
CDISCPILOT01,VS,CDISC008,11,DIABP,Diastolic Blood Pressure,STANDING,78,mmHg,78,78,mmHg,,,,2,4,WEEK 2,TREATMENT,2014-05-25,15
CDISCPILOT01,VS,CDISC008,12,DIABP,Diastolic Blood Pressure,STANDING,76,mmHg,76,76,mmHg,,,,3,4,WEEK 2,TREATMENT,2014-05-25,15
CDISCPILOT01,VS,CDISC008,13,DIABP,Diastolic Blood Pressure,SUPINE,72,mmHg,72,72,mmHg,,,,1,5,WEEK 4,TREATMENT,2014-06-11,32
CDISCPILOT01,VS,CDISC008,14,DIABP,Diastolic Blood Pressure,STANDING,80,mmHg,80,80,mmHg,,,,2,5,WEEK 4,TREATMENT,2014-06-11,32
CDISCPILOT01,VS,CDISC008,15,DIABP,Diastolic Blood Pressure,STANDING,76,mmHg,76,76,mmHg,,,,3,5,WEEK 4,TREATMENT,2014-06-11,32
CDISCPILOT01,VS,CDISC008,16,DIABP,Diastolic Blood Pressure,SUPINE,70,mmHg,70,70,mmHg,,,,1,7,WEEK 6,TREATMENT,2014-06-25,46
CDISCPILOT01,VS,CDISC008,17,DIABP,Diastolic Blood Pressure,STANDING,74,mmHg,74,74,mmHg,,,,2,7,WEEK 6,TREATMENT,2014-06-25,46
CDISCPILOT01,VS,CDISC008,18,DIABP,Diastolic Blood Pressure,STANDING,76,mmHg,76,76,mmHg,,,,3,7,WEEK 6,TREATMENT,2014-06-25,46
CDISCPILOT01,VS,CDISC008,19,DIABP,Diastolic Blood Pressure,SUPINE,72,mmHg,72,72,mmHg,,,,1,8,WEEK 8,TREATMENT,2014-07-09,60
CDISCPILOT01,VS,CDISC008,20,DIABP,Diastolic Blood Pressure,STANDING,74,mmHg,74,74,mmHg,,,,2,8,WEEK 8,TREATMENT,2014-07-09,60
CDISCPILOT01,VS,CDISC008,21,DIABP,Diastolic Blood Pressure,STANDING,78,mmHg,78,78,mmHg,,,,3,8,WEEK 8,TREATMENT,2014-07-09,60
CDISCPILOT01,VS,CDISC008,22,DIABP,Diastolic Blood Pressure,SUPINE,68,mmHg,68,68,mmHg,,,,1,9,WEEK 12,TREATMENT,2014-08-06,88
CDISCPILOT01,VS,CDISC008,23,DIABP,Diastolic Blood Pressure,STANDING,78,mmHg,78,78,mmHg,,,,2,9,WEEK 12,TREATMENT,2014-08-06,88
CDISCPILOT01,VS,CDISC008,24,DIABP,Diastolic Blood Pressure,STANDING,74,mmHg,74,74,mmHg,,,,3,9,WEEK 12,TREATMENT,2014-08-06,88
CDISCPILOT01,VS,CDISC008,25,DIABP,Diastolic Blood Pressure,SUPINE,82,mmHg,82,82,mmHg,,,,1,10,WEEK 16,TREATMENT,2014-09-03,116
CDISCPILOT01,VS,CDISC008,26,DIABP,Diastolic Blood Pressure,STANDING,84,mmHg,84,84,mmHg,,,,2,10,WEEK 16,TREATMENT,2014-09-03,116
CDISCPILOT01,VS,CDISC008,27,DIABP,Diastolic Blood Pressure,STANDING,88,mmHg,88,88,mmHg,,,,3,10,WEEK 16,TREATMENT,2014-09-03,116
CDISCPILOT01,VS,CDISC008,28,DIABP,Diastolic Blood Pressure,SUPINE,84,mmHg,84,84,mmHg,,,,1,11,WEEK 20,TREATMENT,2014-10-01,144
CDISCPILOT01,VS,CDISC008,29,DIABP,Diastolic Blood Pressure,STANDING,82,mmHg,82,82,mmHg,,,,2,11,WEEK 20,TREATMENT,2014-10-01,144
CDISCPILOT01,VS,CDISC008,30,DIABP,Diastolic Blood Pressure,STANDING,68,mmHg,68,68,mmHg,,,,3,11,WEEK 20,TREATMENT,2014-10-01,144
CDISCPILOT01,VS,CDISC008,31,HEIGHT,Height,,70.0,in,177.8,177.8,cm,,,,,1,SCREENING 1,SCREENING,2014-05-01,-10
CDISCPILOT01,VS,CDISC008,32,PULSE,Pulse Rate,SUPINE,80,beats/min,80,80,beats/min,,,,1,1,SCREENING 1,SCREENING,2014-05-01,-10
CDISCPILOT01,VS,CDISC008,33,PULSE,Pulse Rate,STANDING,98,beats/min,98,98,beats/min,,,,2,1,SCREENING 1,SCREENING,2014-05-01,-10
CDISCPILOT01,VS,CDISC008,34,PULSE,Pulse Rate,STANDING,90,beats/min,90,90,beats/min,,,,3,1,SCREENING 1,SCREENING,2014-05-01,-10
CDISCPILOT01,VS,CDISC008,35,PULSE,Pulse Rate,SUPINE,76,beats/min,76,76,beats/min,,,,1,2,SCREENING 2,SCREENING,2014-05-09,-2
CDISCPILOT01,VS,CDISC008,36,PULSE,Pulse Rate,STANDING,84,beats/min,84,84,beats/min,,,,2,2,SCREENING 2,SCREENING,2014-05-09,-2
CDISCPILOT01,VS,CDISC008,37,PULSE,Pulse Rate,STANDING,84,beats/min,84,84,beats/min,,,,3,2,SCREENING 2,SCREENING,2014-05-09,-2
CDISCPILOT01,VS,CDISC008,38,PULSE,Pulse Rate,SUPINE,74,beats/min,74,74,beats/min,,,,1,3,BASELINE,SCREENING,2014-05-11,1
CDISCPILOT01,VS,CDISC008,39,PULSE,Pulse Rate,STANDING,80,beats/min,80,80,beats/min,,,,2,3,BASELINE,SCREENING,2014-05-11,1
CDISCPILOT01,VS,CDISC008,40,PULSE,Pulse Rate,STANDING,80,beats/min,80,80,beats/min,,,Y,3,3,BASELINE,SCREENING,2014-05-11,1
CDISCPILOT01,VS,CDISC008,41,PULSE,Pulse Rate,SUPINE,80,beats/min,80,80,beats/min,,,,1,4,WEEK 2,TREATMENT,2014-05-25,15
CDISCPILOT01,VS,CDISC008,42,PULSE,Pulse Rate,STANDING,86,beats/min,86,86,beats/min,,,,2,4,WEEK 2,TREATMENT,2014-05-25,15
CDISCPILOT01,VS,CDISC008,43,PULSE,Pulse Rate,STANDING,84,beats/min,84,84,beats/min,,,,3,4,WEEK 2,TREATMENT,2014-05-25,15
CDISCPILOT01,VS,CDISC008,44,PULSE,Pulse Rate,SUPINE,76,beats/min,76,76,beats/min,,,,1,5,WEEK 4,TREATMENT,2014-06-11,32
CDISCPILOT01,VS,CDISC008,45,PULSE,Pulse Rate,STANDING,80,beats/min,80,80,beats/min,,,,2,5,WEEK 4,TREATMENT,2014-06-11,32
CDISCPILOT01,VS,CDISC008,46,PULSE,Pulse Rate,STANDING,80,beats/min,80,80,beats/min,,,,3,5,WEEK 4,TREATMENT,2014-06-11,32
CDISCPILOT01,VS,CDISC008,47,PULSE,Pulse Rate,SUPINE,72,beats/min,72,72,beats/min,,,,1,7,WEEK 6,TREATMENT,2014-06-25,46
CDISCPILOT01,VS,CDISC008,48,PULSE,Pulse Rate,STANDING,80,beats/min,80,80,beats/min,,,,2,7,WEEK 6,TREATMENT,2014-06-25,46
CDISCPILOT01,VS,CDISC008,49,PULSE,Pulse Rate,STANDING,76,beats/min,76,76,beats/min,,,,3,7,WEEK 6,TREATMENT,2014-06-25,46
CDISCPILOT01,VS,CDISC008,50,PULSE,Pulse Rate,SUPINE,74,beats/min,74,74,beats/min,,,,1,8,WEEK 8,TREATMENT,2014-07-09,60
CDISCPILOT01,VS,CDISC008,51,PULSE,Pulse Rate,STANDING,80,beats/min,80,80,beats/min,,,,2,8,WEEK 8,TREATMENT,2014-07-09,60
CDISCPILOT01,VS,CDISC008,52,PULSE,Pulse Rate,STANDING,80,beats/min,80,80,beats/min,,,,3,8,WEEK 8,TREATMENT,2014-07-09,60
CDISCPILOT01,VS,CDISC008,53,PULSE,Pulse Rate,SUPINE,70,beats/min,70,70,beats/min,,,,1,9,WEEK 12,TREATMENT,2014-08-06,88
CDISCPILOT01,VS,CDISC008,54,PULSE,Pulse Rate,STANDING,78,beats/min,78,78,beats/min,,,,2,9,WEEK 12,TREATMENT,2014-08-06,88
CDISCPILOT01,VS,CDISC008,55,PULSE,Pulse Rate,STANDING,80,beats/min,80,80,beats/min,,,,3,9,WEEK 12,TREATMENT,2014-08-06,88
CDISCPILOT01,VS,CDISC008,56,PULSE,Pulse Rate,SUPINE,78,beats/min,78,78,beats/min,,,,1,10,WEEK 16,TREATMENT,2014-09-03,116
CDISCPILOT01,VS,CDISC008,57,PULSE,Pulse Rate,STANDING,78,beats/min,78,78,beats/min,,,,2,10,WEEK 16,TREATMENT,2014-09-03,116
CDISCPILOT01,VS,CDISC008,58,PULSE,Pulse Rate,STANDING,78,beats/min,78,78,beats/min,,,,3,10,WEEK 16,TREATMENT,2014-09-03,116
CDISCPILOT01,VS,CDISC008,59,PULSE,Pulse Rate,SUPINE,68,beats/min,68,68,beats/min,,,,1,11,WEEK 20,TREATMENT,2014-10-01,144
CDISCPILOT01,VS,CDISC008,60,PULSE,Pulse Rate,STANDING,72,beats/min,72,72,beats/min,,,,2,11,WEEK 20,TREATMENT,2014-10-01,144
CDISCPILOT01,VS,CDISC008,61,PULSE,Pulse Rate,STANDING,76,beats/min,76,76,beats/min,,,,3,11,WEEK 20,TREATMENT,2014-10-01,144
CDISCPILOT01,VS,CDISC008,62,SYSBP,Systolic Blood Pressure,SUPINE,118,mmHg,118,118,mmHg,,,,1,1,SCREENING 1,SCREENING,2014-05-01,-10
CDISCPILOT01,VS,CDISC008,63,SYSBP,Systolic Blood Pressure,STANDING,124,mmHg,124,124,mmHg,,,,2,1,SCREENING 1,SCREENING,2014-05-01,-10
CDISCPILOT01,VS,CDISC008,64,SYSBP,Systolic Blood Pressure,STANDING,136,mmHg,136,136,mmHg,,,,3,1,SCREENING 1,SCREENING,2014-05-01,-10
CDISCPILOT01,VS,CDISC008,65,SYSBP,Systolic Blood Pressure,SUPINE,124,mmHg,124,124,mmHg,,,,1,2,SCREENING 2,SCREENING,2014-05-09,-2
CDISCPILOT01,VS,CDISC008,66,SYSBP,Systolic Blood Pressure,STANDING,126,mmHg,126,126,mmHg,,,,2,2,SCREENING 2,SCREENING,2014-05-09,-2
CDISCPILOT01,VS,CDISC008,67,SYSBP,Systolic Blood Pressure,STANDING,130,mmHg,130,130,mmHg,,,,3,2,SCREENING 2,SCREENING,2014-05-09,-2
CDISCPILOT01,VS,CDISC008,68,SYSBP,Systolic Blood Pressure,SUPINE,116,mmHg,116,116,mmHg,,,,1,3,BASELINE,SCREENING,2014-05-11,1
CDISCPILOT01,VS,CDISC008,69,SYSBP,Systolic Blood Pressure,STANDING,120,mmHg,120,120,mmHg,,,,2,3,BASELINE,SCREENING,2014-05-11,1
CDISCPILOT01,VS,CDISC008,70,SYSBP,Systolic Blood Pressure,STANDING,126,mmHg,126,126,mmHg,,,Y,3,3,BASELINE,SCREENING,2014-05-11,1
CDISCPILOT01,VS,CDISC008,71,SYSBP,Systolic Blood Pressure,SUPINE,124,mmHg,124,124,mmHg,,,,1,4,WEEK 2,TREATMENT,2014-05-25,15
CDISCPILOT01,VS,CDISC008,72,SYSBP,Systolic Blood Pressure,STANDING,128,mmHg,128,128,mmHg,,,,2,4,WEEK 2,TREATMENT,2014-05-25,15
CDISCPILOT01,VS,CDISC008,73,SYSBP,Systolic Blood Pressure,STANDING,130,mmHg,130,130,mmHg,,,,3,4,WEEK 2,TREATMENT,2014-05-25,15
CDISCPILOT01,VS,CDISC008,74,SYSBP,Systolic Blood Pressure,SUPINE,120,mmHg,120,120,mmHg,,,,1,5,WEEK 4,TREATMENT,2014-06-11,32
CDISCPILOT01,VS,CDISC008,75,SYSBP,Systolic Blood Pressure,STANDING,128,mmHg,128,128,mmHg,,,,2,5,WEEK 4,TREATMENT,2014-06-11,32
CDISCPILOT01,VS,CDISC008,76,SYSBP,Systolic Blood Pressure,STANDING,126,mmHg,126,126,mmHg,,,,3,5,WEEK 4,TREATMENT,2014-06-11,32
CDISCPILOT01,VS,CDISC008,77,SYSBP,Systolic Blood Pressure,SUPINE,120,mmHg,120,120,mmHg,,,,1,7,WEEK 6,TREATMENT,2014-06-25,46
CDISCPILOT01,VS,CDISC008,78,SYSBP,Systolic Blood Pressure,STANDING,134,mmHg,134,134,mmHg,,,,2,7,WEEK 6,TREATMENT,2014-06-25,46
CDISCPILOT01,VS,CDISC008,79,SYSBP,Systolic Blood Pressure,STANDING,130,mmHg,130,130,mmHg,,,,3,7,WEEK 6,TREATMENT,2014-06-25,46
CDISCPILOT01,VS,CDISC008,80,SYSBP,Systolic Blood Pressure,SUPINE,126,mmHg,126,126,mmHg,,,,1,8,WEEK 8,TREATMENT,2014-07-09,60
CDISCPILOT01,VS,CDISC008,81,SYSBP,Systolic Blood Pressure,STANDING,130,mmHg,130,130,mmHg,,,,2,8,WEEK 8,TREATMENT,2014-07-09,60
CDISCPILOT01,VS,CDISC008,82,SYSBP,Systolic Blood Pressure,STANDING,132,mmHg,132,132,mmHg,,,,3,8,WEEK 8,TREATMENT,2014-07-09,60
CDISCPILOT01,VS,CDISC008,83,SYSBP,Systolic Blood Pressure,SUPINE,126,mmHg,126,126,mmHg,,,,1,9,WEEK 12,TREATMENT,2014-08-06,88
CDISCPILOT01,VS,CDISC008,84,SYSBP,Systolic Blood Pressure,STANDING,128,mmHg,128,128,mmHg,,,,2,9,WEEK 12,TREATMENT,2014-08-06,88
CDISCPILOT01,VS,CDISC008,85,SYSBP,Systolic Blood Pressure,STANDING,132,mmHg,132,132,mmHg,,,,3,9,WEEK 12,TREATMENT,2014-08-06,88
CDISCPILOT01,VS,CDISC008,86,SYSBP,Systolic Blood Pressure,SUPINE,160,mmHg,160,160,mmHg,,,,1,10,WEEK 16,TREATMENT,2014-09-03,116
CDISCPILOT01,VS,CDISC008,87,SYSBP,Systolic Blood Pressure,STANDING,140,mmHg,140,140,mmHg,,,,2,10,WEEK 16,TREATMENT,2014-09-03,116
CDISCPILOT01,VS,CDISC008,88,SYSBP,Systolic Blood Pressure,STANDING,142,mmHg,142,142,mmHg,,,,3,10,WEEK 16,TREATMENT,2014-09-03,116
CDISCPILOT01,VS,CDISC008,89,SYSBP,Systolic Blood Pressure,SUPINE,152,mmHg,152,152,mmHg,,,,1,11,WEEK 20,TREATMENT,2014-10-01,144
CDISCPILOT01,VS,CDISC008,90,SYSBP,Systolic Blood Pressure,STANDING,136,mmHg,136,136,mmHg,,,,2,11,WEEK 20,TREATMENT,2014-10-01,144
CDISCPILOT01,VS,CDISC008,91,SYSBP,Systolic Blood Pressure,STANDING,118,mmHg,118,118,mmHg,,,,3,11,WEEK 20,TREATMENT,2014-10-01,144
CDISCPILOT01,VS,CDISC008,92,TEMP,Temperature,,97.6,F,36.44,36.44,C,,ORAL CAVITY,,,1,SCREENING 1,SCREENING,2014-05-01,-10
CDISCPILOT01,VS,CDISC008,93,TEMP,Temperature,,98.0,F,36.67,36.67,C,,ORAL CAVITY,,,2,SCREENING 2,SCREENING,2014-05-09,-2
CDISCPILOT01,VS,CDISC008,94,TEMP,Temperature,,98.4,F,36.89,36.89,C,,ORAL CAVITY,,,3,BASELINE,SCREENING,2014-05-11,1
CDISCPILOT01,VS,CDISC008,95,TEMP,Temperature,,98.0,F,36.67,36.67,C,,ORAL CAVITY,,,4,WEEK 2,TREATMENT,2014-05-25,15
CDISCPILOT01,VS,CDISC008,96,TEMP,Temperature,,98.3,F,36.83,36.83,C,,ORAL CAVITY,,,5,WEEK 4,TREATMENT,2014-06-11,32
CDISCPILOT01,VS,CDISC008,97,TEMP,Temperature,,098.5,F,36.94,36.94,C,,ORAL CAVITY,,,7,WEEK 6,TREATMENT,2014-06-25,46
CDISCPILOT01,VS,CDISC008,98,TEMP,Temperature,,098.8,F,37.11,37.11,C,,ORAL CAVITY,,,8,WEEK 8,TREATMENT,2014-07-09,60
CDISCPILOT01,VS,CDISC008,99,TEMP,Temperature,,098.4,F,36.89,36.89,C,,ORAL CAVITY,,,9,WEEK 12,TREATMENT,2014-08-06,88
CDISCPILOT01,VS,CDISC008,100,TEMP,Temperature,,098.0,F,36.67,36.67,C,,ORAL CAVITY,,,10,WEEK 16,TREATMENT,2014-09-03,116
CDISCPILOT01,VS,CDISC008,101,TEMP,Temperature,,097.6,F,36.44,36.44,C,,ORAL CAVITY,,,11,WEEK 20,TREATMENT,2014-10-01,144
CDISCPILOT01,VS,CDISC008,102,WEIGHT,Weight,,158.5,LB,71.9,71.9,kg,,,,,1,SCREENING 1,SCREENING,2014-05-01,-10
CDISCPILOT01,VS,CDISC008,103,WEIGHT,Weight,,159.0,LB,72.12,72.12,kg,,,,,3,BASELINE,SCREENING,2014-05-11,1
CDISCPILOT01,VS,CDISC008,104,WEIGHT,Weight,,160.0,LB,72.58,72.58,kg,,,,,4,WEEK 2,TREATMENT,2014-05-25,15
CDISCPILOT01,VS,CDISC008,105,WEIGHT,Weight,,160.0,LB,72.58,72.58,kg,,,,,5,WEEK 4,TREATMENT,2014-06-11,32
CDISCPILOT01,VS,CDISC008,106,WEIGHT,Weight,,158.0,LB,71.67,71.67,kg,,,,,7,WEEK 6,TREATMENT,2014-06-25,46
CDISCPILOT01,VS,CDISC008,107,WEIGHT,Weight,,159.0,LB,72.12,72.12,kg,,,,,8,WEEK 8,TREATMENT,2014-07-09,60
CDISCPILOT01,VS,CDISC008,108,WEIGHT,Weight,,158.0,LB,71.67,71.67,kg,,,,,9,WEEK 12,TREATMENT,2014-08-06,88
CDISCPILOT01,VS,CDISC008,109,WEIGHT,Weight,,158.0,LB,71.67,71.67,kg,,,,,10,WEEK 16,TREATMENT,2014-09-03,116
CDISCPILOT01,VS,CDISC008,110,WEIGHT,Weight,,159.0,LB,72.12,72.12,kg,,,,,11,WEEK 20,TREATMENT,2014-10-01,144
