STUDYID,DOMAIN,USUBJID,PCSEQ,PCTESTCD,PCTEST,PCORRES,PCORRESU,PCSTRESC,PCSTRESN,PCSTRESU
1234,PC,123101,1,DRUGX,Study Drug,9,ug/mL,6,6,ug/mL
1234,PC,123101,2,DRUGX,Study Drug,10,ug/mL,10,10,ug/mL
1234,PC,123101,3,DRUGX,Study Drug,11,ug/mL,11,11,ug/mL
1234,PC,123101,4,METABOLA,Metabolite A,22,mmol/L,22,22,mmol/L
1234,PC,123101,5,METABOLA,Metabolite A,33,mmol/L,33,33,mmol/L
1234,PC,123101,6,METABOLA,Metabolite A,44,mmol/L,44,44,mmol/L
1234,PC,99,1,DRUGX,Study Drug,9,ug/mL,6,6,ug/mL
1234,PC,99,2,DRUGX,Study Drug,10,ug/mL,10,10,ug/mL
1234,PC,99,3,DRUGX,Study Drug,11,ug/mL,11,11,ug/mL
1234,PC,99,4,METABOLA,Metabolite A,22,mmol/L,22,22,mmol/L
1234,PC,99,5,METABOLA,Metabolite A,33,mmol/L,33,33,mmol/L
1234,PC,99,6,METABOLA,Metabolite A,44,mmol/L,44,44,mmol/L
