STUDYID,DOMAIN,USUBJID,EGSEQ,EGTESTCD,EGTEST,EGBEATNO,EGORRES,EGORRESU
ABC123,EG,123101,1,PRSB,"PR Interval, Single Beat",1,176,msec
ABC123,EG,123101,2,QRSSB,"QRS
Duration,
Single Beat",1,97,msec
ABC123,EG,123101,3,PRSB,"PR Interval, Single Beat",2,176,msec
ABC123,EG,123101,4,RRSM,"RR Interval, Single Interval",2,679,msec
