STUDYID,DOMAIN,USUBJID,MHSEQ,MHTERM,MHEVDTYP,MHSTDTC,MHSTDY,MHENDTC
CDISCPILOT01,MH,CDISC001,1,ALZHEIMER'S DISEASE,SYMPTOM ONSET,2004-05-28,-3108,
CDISCPILOT01,MH,CDISC002,1,ALZHEIMER'S DISEASE,SYMPTOM ONSET,2010-03-19,-972,2010-03-20
CDISCPILOT01,MH,CDISC003,1,ALZHEIMER'S DISEASE,SYMPTOM ONSET,2007-02-09,-2393,2010-02-09
CDISCPILOT01,MH,CDISC004,1,ALZHEIMER'S DISEASE,SYMPTOM ONSET,2010-11-05,-1068,2013-10-08
CDISCPILOT01,MH,CDISC005,1,ALZHEIMER'S DISEASE,SYMPTOM ONSET,2006-08-20,-2360,2010-08-20
CDISCPILOT01,MH,CDISC006,1,ALZHEIMER'S DISEASE,SYMPTOM ONSET,2008-06-17,-1736,2013-03-20
CDISCPILOT01,MH,CDISC007,1,ALZHEIMER'S DISEASE,SYMPTOM ONSET,2008-05-21,-1690,2008-12-21
CDISCPILOT01,MH,CDISC008,1,ALZHEIMER'S DISEASE,SYMPTOM ONSET,2012-11-11,-546,2013-11-11
CDISCPILOT01,MH,CDISC009,1,ALZHEIMER'S DISEASE,SYMPTOM ONSET,2008-09-02,-1511,2010-09-02
CDISCPILOT01,MH,CDISC010,1,ALZHEIMER'S DISEASE,SYMPTOM ONSET,2012-09-08,-378,2013-09-20
CDISCPILOT01,MH,CDISC011,1,ALZHEIMER'S DISEASE,SYMPTOM ONSET,2002-12-01,-3659,2010-12-01
CDISCPILOT01,MH,CDISC012,1,ALZHEIMER'S DISEASE,SYMPTOM ONSET,2009-03-16,-1632,2010-03-16
CDISCPILOT01,MH,CDISC013,1,ALZHEIMER'S DISEASE,SYMPTOM ONSET,2011-07-19,-734,2013-08-22
CDISCPILOT01,MH,CDISC014,1,ALZHEIMER'S DISEASE,SYMPTOM ONSET,2011-07-25,-618,2013-04-03
CDISCPILOT01,MH,CDISC016,1,ALZHEIMER'S DISEASE,SYMPTOM ONSET,2011-04-29,-705,2012-04-29
CDISCPILOT01,MH,CDISC017,1,ALZHEIMER'S DISEASE,SYMPTOM ONSET,2008-08-20,-1858,2010-08-20
CDISCPILOT01,MH,CDISC018,1,ALZHEIMER'S DISEASE,SYMPTOM ONSET,2010-05-03,-959,2011-05-03
