dataset,variable,label,type,length
ex,STUDYID,Study Identifier,Char,12
ex,DOMAIN,Domain Abbreviation,Char,2
ex,USUBJID,Unique Subject Identifier,Char,8
ex,EXSEQ,Sequence Number,Num,8
ex,EXTRT,Name of Treatment,Char,10
ex,EXDTC,Date/Time of Treatment,Char,10
ex,EXDY,Study Day of Treatment,Num,8
ex,EXSTDTC,Start Date/Time of Treatment,Char,10
ex,EXENDTC,End Date/Time of Treatment,Char,10
ex,EXSTDY,Study Day of Start of Treatment,Num,8
ex,EXENDY,Study Day of End of Treatment,Num,8
dm,STUDYID,Study Identifier,Char,10
dm,DOMAIN,Domain Abbreviation,Char,2
dm,USUBJID,Unique Subject Identifier,Char,14
dm,SUBJID,Subject Identifier for the Study,Char,3
dm,RFSTDTC,Subject Reference Start Date/Time,Char,10
dm,RFENDTC,Subject Reference End Date/Time,Char,10
dm,RFXSTDTC,Date/Time of First Study Treatment,Char,10
dm,RFXENDTC,Date/Time of Last Study Treatment,Char,10
dm,RFICDTC,Date/Time of Informed Consent,Char,10
dm,RFPENDTC,Date/Time of End of Participation,Char,10
dm,DMDTC,Date/Time of Collection,Char,50
dm,DMDY,Study Day of Collection,Num,8
dm,DTHDTC,Date/Time of Death,Char,1
dm,DTHFL,Subject Death Flag,Char,1
dm,SITEID,Study Site Identifier,Char,3
dm,AGE,Age,Num,8
dm,AGEU,Age Units,Char,5
dm,SEX,Sex,Char,1
dm,RACE,Race,Char,1
dm,ARMCD,Planned Arm Code,Char,1
dm,ARM,Description of Planned Arm,Char,13
dm,ACTARMCD,Actual Arm Code,Char,1
dm,ACTARM,Description of Actual Arm,Char,13
dm,COUNTRY,Country,Char,3
