STUDYID,DOMAIN,USUBJID,SUBJID,RFSTDTC,RFENDTC,RFXSTDTC,RFXENDTC,RFICDTC,RFPENDTC,DMDTC,DMDY,DTHDTC,DTHFL,SITEID,AGE,AGEU,SEX,RACE,ARMCD,ARM,ACTARMCD,ACTARM,COUNTRY
CDISCPILOT01,DM,CDISC-TEST-001,001,2012-11-30,2013-09-10,2012-11-30,2013-09-10,2012-10-25,2013-09-10,2012-10-25,-36,,,102,26,YEARS,F,,A,HUMAN INSULIN,A,HUMAN INSULIN,FRA
