STUDYID,RDOMAIN,USUBJID,IDVAR,IDVARVAL,RELTYPE,RELID
CDISCPILOT01,AE,,AESEQ,3,,CMFA-1
CDISCPILOT01,CM,,CMSEQ,1,,CMFA-1
CDISCPILOT01,AE,,AESEQ,1,,CMFA-2
CDISCPILOT01,CM,,CMSEQ,3,,CMFA-2
CDISCPILOT01,AE,,AEGRPID,,ONE,AEFA
CDISCPILOT01,CM,,CMGRPID,,MANY,AEFA
