STUDYID,DOMAIN,USUBJID,PCSEQ,PCGRPID,PCTESTCD,PCTEST,PCORRES,PCORRESU,PCSTRESC,PCSTRESN,PCSTRESU,PCNAM,PCSPEC,PCSPCCND,PCMETHOD,PCLLOQ,VISITNUM,VISIT,EPOCH,PCDTC,PCDY,PCTPT,PCTPTNUM
Sample001,PC,01-004,1,Part A Period 1,PCTCD01,PCTEST01,<LLOQ<(1.00),ng/mL,<LLOQ<(1.00),.,ng/mL,PRA,PLASMA,FROZEN,LC/MS/MS,1,3,Day 1,ADMISSION,2018-04-09T09:00,1,PREDOSE,0
Sample001,PC,01-004,2,Part A Period 1,PCTCD01,PCTEST01,<LLOQ<(1.00),ng/mL,<LLOQ<(1.00),.,ng/mL,PRA,PLASMA,FROZEN,LC/MS/MS,1,3,Day 1,PERIOD 1,2018-04-09T09:35,1,0.5 H POST DOSE,0.5
Sample001,PC,01-004,3,Part A Period 1,PCTCD01,PCTEST01,7.14,ng/mL,7.14,7.14,ng/mL,PRA,PLASMA,FROZEN,LC/MS/MS,1,3,Day 1,PERIOD 1,2018-04-09T10:05,1,1 H POST DOSE,1
Sample001,PC,01-004,4,Part A Period 1,PCTCD01,PCTEST01,16.7,ng/mL,16.7,16.7,ng/mL,PRA,PLASMA,FROZEN,LC/MS/MS,1,3,Day 1,PERIOD 1,2018-04-09T11:05,1,2 H POST DOSE,2
Sample001,PC,01-004,5,Part A Period 1,PCTCD01,PCTEST01,30.5,ng/mL,30.5,30.5,ng/mL,PRA,PLASMA,FROZEN,LC/MS/MS,1,3,Day 1,PERIOD 1,2018-04-09T12:05,1,3 H POST DOSE,3
Sample001,PC,01-004,6,Part A Period 1,PCTCD01,PCTEST01,40.6,ng/mL,40.6,40.6,ng/mL,PRA,PLASMA,FROZEN,LC/MS/MS,1,3,Day 1,PERIOD 1,2018-04-09T13:05,1,4 H POST DOSE,4
Sample001,PC,01-004,7,Part A Period 1,PCTCD01,PCTEST01,54.9,ng/mL,54.9,54.9,ng/mL,PRA,PLASMA,FROZEN,LC/MS/MS,1,3,Day 1,PERIOD 1,2018-04-09T14:07,1,5 H POST DOSE,5
Sample001,PC,01-004,8,Part A Period 1,PCTCD01,PCTEST01,54,ng/mL,54,54,ng/mL,PRA,PLASMA,FROZEN,LC/MS/MS,1,3,Day 1,PERIOD 1,2018-04-09T15:05,1,6 H POST DOSE,6
Sample001,PC,01-004,9,Part A Period 1,PCTCD01,PCTEST01,58.6,ng/mL,58.6,58.6,ng/mL,PRA,PLASMA,FROZEN,LC/MS/MS,1,3,Day 1,PERIOD 1,2018-04-09T17:05,1,8 H POST DOSE,8
Sample001,PC,01-004,10,Part A Period 1,PCTCD01,PCTEST01,34.5,ng/mL,34.5,34.5,ng/mL,PRA,PLASMA,FROZEN,LC/MS/MS,1,3,Day 1,PERIOD 1,2018-04-09T19:05,1,10 H POST DOSE,10
Sample001,PC,01-004,11,Part A Period 1,PCTCD01,PCTEST01,23.2,ng/mL,23.2,23.2,ng/mL,PRA,PLASMA,FROZEN,LC/MS/MS,1,3,Day 1,PERIOD 1,2018-04-09T21:05,1,12 H POST DOSE,12
Sample001,PC,01-004,12,Part A Period 1,PCTCD01,PCTEST01,16.4,ng/mL,16.4,16.4,ng/mL,PRA,PLASMA,FROZEN,LC/MS/MS,1,3,Day 1,PERIOD 1,2018-04-10T01:05,2,16 H POST DOSE,16
Sample001,PC,01-004,13,Part A Period 1,PCTCD01,PCTEST01,15.9,ng/mL,15.9,15.9,ng/mL,PRA,PLASMA,FROZEN,LC/MS/MS,1,4,Day 2,PERIOD 1,2018-04-10T09:06,2,24 H POST DOSE,24
Sample001,PC,01-004,14,Part A Period 1,PCTCD01,PCTEST01,7.56,ng/mL,7.56,7.56,ng/mL,PRA,PLASMA,FROZEN,LC/MS/MS,1,5,Day 3,PERIOD 1,2018-04-11T09:05,3,48 H POST DOSE,48
Sample001,PC,01-004,15,Part A Period 1,PCTCD01,PCTEST01,3.86,ng/mL,3.86,3.86,ng/mL,PRA,PLASMA,FROZEN,LC/MS/MS,1,6,Day 4,PERIOD 1,2018-04-12T09:05,4,72 H POST DOSE,72
Sample001,PC,01-004,16,Part A Period 2,PCTCD01,PCTEST01,<LLOQ<(1.00),ng/mL,<LLOQ<(1.00),.,ng/mL,PRA,PLASMA,FROZEN,LC/MS/MS,1,13,Day 11,PERIOD 2,2018-04-19T09:02,11,PREDOSE,0
Sample001,PC,01-004,17,Part A Period 2,PCTCD01,PCTEST01,<LLOQ<(1.00),ng/mL,<LLOQ<(1.00),.,ng/mL,PRA,PLASMA,FROZEN,LC/MS/MS,1,13,Day 11,PERIOD 2,2018-04-19T09:35,11,0.5 H POST DOSE,0.5
Sample001,PC,01-004,18,Part A Period 2,PCTCD01,PCTEST01,<LLOQ<(1.00),ng/mL,<LLOQ<(1.00),.,ng/mL,PRA,PLASMA,FROZEN,LC/MS/MS,1,13,Day 11,PERIOD 2,2018-04-19T10:05,11,1 H POST DOSE,1
Sample001,PC,01-004,19,Part A Period 2,PCTCD01,PCTEST01,11.4,ng/mL,11.4,11.4,ng/mL,PRA,PLASMA,FROZEN,LC/MS/MS,1,13,Day 11,PERIOD 2,2018-04-19T11:05,11,2 H POST DOSE,2
Sample001,PC,01-004,20,Part A Period 2,PCTCD01,PCTEST01,15.6,ng/mL,15.6,15.6,ng/mL,PRA,PLASMA,FROZEN,LC/MS/MS,1,13,Day 11,PERIOD 2,2018-04-19T12:05,11,3 H POST DOSE,3
Sample001,PC,01-004,21,Part A Period 2,PCTCD01,PCTEST01,18.1,ng/mL,18.1,18.1,ng/mL,PRA,PLASMA,FROZEN,LC/MS/MS,1,13,Day 11,PERIOD 2,2018-04-19T13:05,11,4 H POST DOSE,4
Sample001,PC,01-004,22,Part A Period 2,PCTCD01,PCTEST01,19.5,ng/mL,19.5,19.5,ng/mL,PRA,PLASMA,FROZEN,LC/MS/MS,1,13,Day 11,PERIOD 2,2018-04-19T14:05,11,5 H POST DOSE,5
Sample001,PC,01-004,23,Part A Period 2,PCTCD01,PCTEST01,17.6,ng/mL,17.6,17.6,ng/mL,PRA,PLASMA,FROZEN,LC/MS/MS,1,13,Day 11,PERIOD 2,2018-04-19T15:05,11,6 H POST DOSE,6
Sample001,PC,01-004,24,Part A Period 2,PCTCD01,PCTEST01,8.2,ng/mL,8.2,8.2,ng/mL,PRA,PLASMA,FROZEN,LC/MS/MS,1,13,Day 11,PERIOD 2,2018-04-19T17:05,11,8 H POST DOSE,8
Sample001,PC,01-004,25,Part A Period 2,PCTCD01,PCTEST01,5.33,ng/mL,5.33,5.33,ng/mL,PRA,PLASMA,FROZEN,LC/MS/MS,1,13,Day 11,PERIOD 2,2018-04-19T19:05,11,10 H POST DOSE,10
Sample001,PC,01-004,26,Part A Period 2,PCTCD01,PCTEST01,4.63,ng/mL,4.63,4.63,ng/mL,PRA,PLASMA,FROZEN,LC/MS/MS,1,13,Day 11,PERIOD 2,2018-04-19T21:05,11,12 H POST DOSE,12
Sample001,PC,01-004,27,Part A Period 2,PCTCD01,PCTEST01,2.57,ng/mL,2.57,2.57,ng/mL,PRA,PLASMA,FROZEN,LC/MS/MS,1,13,Day 11,PERIOD 2,2018-04-20T01:05,12,16 H POST DOSE,16
Sample001,PC,01-004,28,Part A Period 2,PCTCD01,PCTEST01,1.75,ng/mL,1.75,1.75,ng/mL,PRA,PLASMA,FROZEN,LC/MS/MS,1,14,Day 12,PERIOD 2,2018-04-20T09:05,12,24 H POST DOSE,24
Sample001,PC,01-004,29,Part A Period 2,PCTCD01,PCTEST01,1.49,ng/mL,1.49,1.49,ng/mL,PRA,PLASMA,FROZEN,LC/MS/MS,1,15,Day 13,PERIOD 2,2018-04-21T09:05,13,48 H POST DOSE,48
Sample001,PC,01-004,30,Part A Period 2,PCTCD01,PCTEST01,<LLOQ<(1.00),ng/mL,<LLOQ<(1.00),.,ng/mL,PRA,PLASMA,FROZEN,LC/MS/MS,1,16,Day 14,PERIOD 2,2018-04-22T09:05,14,72 H POST DOSE,72
Sample001,PC,01-012,1,Part A Period 1,PCTCD01,PCTEST01,<LLOQ<(1.00),ng/mL,<LLOQ<(1.00),.,ng/mL,PRA,PLASMA,FROZEN,LC/MS/MS,1,3,Day 1,ADMISSION,2018-04-09T10:00,1,PREDOSE,0
Sample001,PC,01-012,2,Part A Period 1,PCTCD01,PCTEST01,<LLOQ<(1.00),ng/mL,<LLOQ<(1.00),.,ng/mL,PRA,PLASMA,FROZEN,LC/MS/MS,1,3,Day 1,PERIOD 1,2018-04-09T10:35,1,0.5 H POST DOSE,0.5
Sample001,PC,01-012,3,Part A Period 1,PCTCD01,PCTEST01,<LLOQ<(1.00),ng/mL,<LLOQ<(1.00),.,ng/mL,PRA,PLASMA,FROZEN,LC/MS/MS,1,3,Day 1,PERIOD 1,2018-04-09T11:05,1,1 H POST DOSE,1
Sample001,PC,01-012,4,Part A Period 1,PCTCD01,PCTEST01,15.8,ng/mL,15.8,15.8,ng/mL,PRA,PLASMA,FROZEN,LC/MS/MS,1,3,Day 1,PERIOD 1,2018-04-09T12:05,1,2 H POST DOSE,2
Sample001,PC,01-012,5,Part A Period 1,PCTCD01,PCTEST01,38.2,ng/mL,38.2,38.2,ng/mL,PRA,PLASMA,FROZEN,LC/MS/MS,1,3,Day 1,PERIOD 1,2018-04-09T13:07,1,3 H POST DOSE,3
Sample001,PC,01-012,6,Part A Period 1,PCTCD01,PCTEST01,44.9,ng/mL,44.9,44.9,ng/mL,PRA,PLASMA,FROZEN,LC/MS/MS,1,3,Day 1,PERIOD 1,2018-04-09T14:05,1,4 H POST DOSE,4
Sample001,PC,01-012,7,Part A Period 1,PCTCD01,PCTEST01,50.4,ng/mL,50.4,50.4,ng/mL,PRA,PLASMA,FROZEN,LC/MS/MS,1,3,Day 1,PERIOD 1,2018-04-09T15:05,1,5 H POST DOSE,5
Sample001,PC,01-012,8,Part A Period 1,PCTCD01,PCTEST01,42.2,ng/mL,42.2,42.2,ng/mL,PRA,PLASMA,FROZEN,LC/MS/MS,1,3,Day 1,PERIOD 1,2018-04-09T16:05,1,6 H POST DOSE,6
Sample001,PC,01-012,9,Part A Period 1,PCTCD01,PCTEST01,33.1,ng/mL,33.1,33.1,ng/mL,PRA,PLASMA,FROZEN,LC/MS/MS,1,3,Day 1,PERIOD 1,2018-04-09T18:05,1,8 H POST DOSE,8
Sample001,PC,01-012,10,Part A Period 1,PCTCD01,PCTEST01,24.9,ng/mL,24.9,24.9,ng/mL,PRA,PLASMA,FROZEN,LC/MS/MS,1,3,Day 1,PERIOD 1,2018-04-09T20:05,1,10 H POST DOSE,10
Sample001,PC,01-012,11,Part A Period 1,PCTCD01,PCTEST01,18.9,ng/mL,18.9,18.9,ng/mL,PRA,PLASMA,FROZEN,LC/MS/MS,1,3,Day 1,PERIOD 1,2018-04-09T22:05,1,12 H POST DOSE,12
Sample001,PC,01-012,12,Part A Period 1,PCTCD01,PCTEST01,13.6,ng/mL,13.6,13.6,ng/mL,PRA,PLASMA,FROZEN,LC/MS/MS,1,3,Day 1,PERIOD 1,2018-04-10T02:05,2,16 H POST DOSE,16
Sample001,PC,01-012,13,Part A Period 1,PCTCD01,PCTEST01,15.1,ng/mL,15.1,15.1,ng/mL,PRA,PLASMA,FROZEN,LC/MS/MS,1,4,Day 2,PERIOD 1,2018-04-10T10:05,2,24 H POST DOSE,24
Sample001,PC,01-012,14,Part A Period 1,PCTCD01,PCTEST01,9.44,ng/mL,9.44,9.44,ng/mL,PRA,PLASMA,FROZEN,LC/MS/MS,1,5,Day 3,PERIOD 1,2018-04-11T10:05,3,48 H POST DOSE,48
Sample001,PC,01-012,15,Part A Period 1,PCTCD01,PCTEST01,4.93,ng/mL,4.93,4.93,ng/mL,PRA,PLASMA,FROZEN,LC/MS/MS,1,6,Day 4,PERIOD 1,2018-04-12T10:05,4,72 H POST DOSE,72
Sample001,PC,01-012,16,Part A Period 2,PCTCD01,PCTEST01,<LLOQ<(1.00),ng/mL,<LLOQ<(1.00),.,ng/mL,PRA,PLASMA,FROZEN,LC/MS/MS,1,13,Day 11,PERIOD 2,2018-04-19T10:00,11,PREDOSE,0
Sample001,PC,01-012,17,Part A Period 2,PCTCD01,PCTEST01,<LLOQ<(1.00),ng/mL,<LLOQ<(1.00),.,ng/mL,PRA,PLASMA,FROZEN,LC/MS/MS,1,13,Day 11,PERIOD 2,2018-04-19T10:35,11,0.5 H POST DOSE,0.5
Sample001,PC,01-012,18,Part A Period 2,PCTCD01,PCTEST01,5.13,ng/mL,5.13,5.13,ng/mL,PRA,PLASMA,FROZEN,LC/MS/MS,1,13,Day 11,PERIOD 2,2018-04-19T11:05,11,1 H POST DOSE,1
Sample001,PC,01-012,19,Part A Period 2,PCTCD01,PCTEST01,14.4,ng/mL,14.4,14.4,ng/mL,PRA,PLASMA,FROZEN,LC/MS/MS,1,13,Day 11,PERIOD 2,2018-04-19T12:05,11,2 H POST DOSE,2
Sample001,PC,01-012,20,Part A Period 2,PCTCD01,PCTEST01,19.6,ng/mL,19.6,19.6,ng/mL,PRA,PLASMA,FROZEN,LC/MS/MS,1,13,Day 11,PERIOD 2,2018-04-19T13:05,11,3 H POST DOSE,3
Sample001,PC,01-012,21,Part A Period 2,PCTCD01,PCTEST01,14,ng/mL,14,14,ng/mL,PRA,PLASMA,FROZEN,LC/MS/MS,1,13,Day 11,PERIOD 2,2018-04-19T14:05,11,4 H POST DOSE,4
Sample001,PC,01-012,22,Part A Period 2,PCTCD01,PCTEST01,12.7,ng/mL,12.7,12.7,ng/mL,PRA,PLASMA,FROZEN,LC/MS/MS,1,13,Day 11,PERIOD 2,2018-04-19T15:05,11,5 H POST DOSE,5
Sample001,PC,01-012,23,Part A Period 2,PCTCD01,PCTEST01,9.24,ng/mL,9.24,9.24,ng/mL,PRA,PLASMA,FROZEN,LC/MS/MS,1,13,Day 11,PERIOD 2,2018-04-19T16:05,11,6 H POST DOSE,6
Sample001,PC,01-012,24,Part A Period 2,PCTCD01,PCTEST01,7.6,ng/mL,7.6,7.6,ng/mL,PRA,PLASMA,FROZEN,LC/MS/MS,1,13,Day 11,PERIOD 2,2018-04-19T18:05,11,8 H POST DOSE,8
Sample001,PC,01-012,25,Part A Period 2,PCTCD01,PCTEST01,4.69,ng/mL,4.69,4.69,ng/mL,PRA,PLASMA,FROZEN,LC/MS/MS,1,13,Day 11,PERIOD 2,2018-04-19T20:05,11,10 H POST DOSE,10
Sample001,PC,01-012,26,Part A Period 2,PCTCD01,PCTEST01,2.45,ng/mL,2.45,2.45,ng/mL,PRA,PLASMA,FROZEN,LC/MS/MS,1,13,Day 11,PERIOD 2,2018-04-19T22:05,11,12 H POST DOSE,12
Sample001,PC,01-012,27,Part A Period 2,PCTCD01,PCTEST01,1.74,ng/mL,1.74,1.74,ng/mL,PRA,PLASMA,FROZEN,LC/MS/MS,1,13,Day 11,PERIOD 2,2018-04-20T02:05,12,16 H POST DOSE,16
Sample001,PC,01-012,28,Part A Period 2,PCTCD01,PCTEST01,1.33,ng/mL,1.33,1.33,ng/mL,PRA,PLASMA,FROZEN,LC/MS/MS,1,14,Day 12,PERIOD 2,2018-04-20T10:05,12,24 H POST DOSE,24
Sample001,PC,01-012,29,Part A Period 2,PCTCD01,PCTEST01,<LLOQ<(1.00),ng/mL,<LLOQ<(1.00),.,ng/mL,PRA,PLASMA,FROZEN,LC/MS/MS,1,15,Day 13,PERIOD 2,2018-04-21T10:05,13,48 H POST DOSE,48
Sample001,PC,01-012,30,Part A Period 2,PCTCD01,PCTEST01,<LLOQ<(1.00),ng/mL,<LLOQ<(1.00),.,ng/mL,PRA,PLASMA,FROZEN,LC/MS/MS,1,16,Day 14,PERIOD 2,2018-04-22T10:05,14,72 H POST DOSE,72
