STUDYID,DOMAIN,USUBJID,FASEQ,FALNKID,FATESTCD,FATEST,FAOBJ,FAORRES,FAORRESU,FASTRESC,FASTRESU,VISITNUM,VISIT,EPOCH
ABC123,FA,ABC123-0201,1,20090213T1000,DOSEALT,Dose in Alternative Unit,DRUG Z,522.5,mg,522.5,mg,1,VISIT 1,TREATMENT
ABC123,FA,ABC123-0201,1,20090213T1000,DOSEALT,Dose in Alternative Unit,DRUG Z,523,mg,523,mg,1,VISIT 1,TREATMENT
