standard,version,domain,variable,core,ordinal,label,role,type,ccode
adam,adam-adae-1-0,Identifier Variables,STUDYID,Req,1,Study Identifier,,Char,
adam,adam-adae-1-0,Identifier Variables,USUBJID,Req,2,Unique Subject Identifier,,Char,
adam,adam-adae-1-0,Identifier Variables,SUBJID,Perm,3,Subject Identifier for the Study,,Char,
adam,adam-adae-1-0,Identifier Variables,SITEID,Perm,4,Study Site Identifier,,Char,
adam,adam-adae-1-0,Identifier Variables,AESEQ,Req,5,Sequence Number,,Num,
adam,adam-adae-1-0,Dictionary Coding Variables for MedDRA,AETERM,Req,6,Reported Term for the Adverse Event,,Char,
adam,adam-adae-1-0,Dictionary Coding Variables for MedDRA,AEDECOD,Req,7,Dictionary-Derived Term,,Char,
adam,adam-adae-1-0,Dictionary Coding Variables for MedDRA,AEBODSYS,Req,8,Body System or Organ Class,,Char,
adam,adam-adae-1-0,Dictionary Coding Variables for MedDRA,AEBDSYCD,Perm,9,Body System or Organ Class Code,,Num,
adam,adam-adae-1-0,Dictionary Coding Variables for MedDRA,AELLT,Cond,10,Lowest Level Term,,Char,
adam,adam-adae-1-0,Dictionary Coding Variables for MedDRA,AELLTCD,Perm,11,Lowest Level Term Code,,Num,
adam,adam-adae-1-0,Dictionary Coding Variables for MedDRA,AEPTCD,Perm,12,Preferred Term Code,,Num,
adam,adam-adae-1-0,Dictionary Coding Variables for MedDRA,AEHLT,Cond,13,High Level Term,,Char,
adam,adam-adae-1-0,Dictionary Coding Variables for MedDRA,AEHLTCD,Perm,14,High Level Term Code,,Num,
adam,adam-adae-1-0,Dictionary Coding Variables for MedDRA,AEHLGT,Cond,15,High Level Group Term,,Char,
adam,adam-adae-1-0,Dictionary Coding Variables for MedDRA,AEHLTGCD,Perm,16,High Level Group Term Code,,Char,
adam,adam-adae-1-0,Dictionary Coding Variables for MedDRA,AESOC,Cond,17,Primary System Organ Class,,Char,
adam,adam-adae-1-0,Dictionary Coding Variables for MedDRA,AESOCCD,Perm,18,Primary System Organ Class Code,,Num,
adam,adam-adae-1-0,Timing Variables,AESTDTC,Perm,19,Start Date/Time of Adverse Event,,Char,
adam,adam-adae-1-0,Timing Variables,ASTDT,Cond,20,Analysis Start Date,,Num,
adam,adam-adae-1-0,Timing Variables,ASTDTM,Cond,21,Analysis Start Date/Time,,Num,
adam,adam-adae-1-0,Timing Variables,ASTDTF,Cond,22,Analysis Start Date Imputation Flag,,Char,C81223
adam,adam-adae-1-0,Timing Variables,ASTTMF,Cond,23,Analysis Start Time Imputation Flag,,Char,C81226
adam,adam-adae-1-0,Timing Variables,AEENDTC,Perm,24,End Date/Time of Adverse Event,,Char,
adam,adam-adae-1-0,Timing Variables,AENDT,Cond,25,Analysis End Date,,Num,
adam,adam-adae-1-0,Timing Variables,AENDTM,Cond,26,Analysis End Date/Time,,Num,
adam,adam-adae-1-0,Timing Variables,AENDTF,Cond,27,Analysis End Date Imputation Flag,,Char,C81223
adam,adam-adae-1-0,Timing Variables,AENTMF,Cond,28,Analysis End Time Imputation Flag,,Char,C81226
adam,adam-adae-1-0,Timing Variables,ASTDY,Cond,29,Analysis Start Relative Day,,Num,
adam,adam-adae-1-0,Timing Variables,AESTDY,Perm,30,Study Day of Start of Adverse Event,,Num,
adam,adam-adae-1-0,Timing Variables,AENDY,Perm,31,Analysis End Relative Day,,Num,
adam,adam-adae-1-0,Timing Variables,AEENDY,Perm,32,Study Day of End of Adverse Event,,Num,
adam,adam-adae-1-0,Timing Variables,ADURN,Perm,33,AE Duration (N),,Num,
adam,adam-adae-1-0,Timing Variables,ADURU,Cond,34,AE Duration Units,,Char,
adam,adam-adae-1-0,Timing Variables,AEDUR,Perm,35,Duration of Adverse Event,,Char,
adam,adam-adae-1-0,Timing Variables,APERIOD,Perm,36,Period,,Num,
adam,adam-adae-1-0,Timing Variables,APERIODC,Perm,37,Period (C),,Char,
adam,adam-adae-1-0,Timing Variables,APHASE,Perm,38,Phase,,Char,
adam,adam-adae-1-0,Indicator Variables,TRTEMFL,Cond,39,Treatment Emergent Analysis Flag,,Char,
adam,adam-adae-1-0,Indicator Variables,AETRTEM,Perm,40,Treatment Emergent Flag,,Char,C66742
adam,adam-adae-1-0,Indicator Variables,ANLzzFL,Cond,41,Analysis Record Flag zz,,Char,
adam,adam-adae-1-0,Indicator Variables,PREFL,Cond,42,Pre-treatment Flag,,Char,
adam,adam-adae-1-0,Indicator Variables,FUPFL,Cond,43,Follow-up Flag,,Char,
adam,adam-adae-1-0,Occurrence Flag Variables,AOCCFL,Perm,44,1st Occurrence of Any AE Flag,,Char,
adam,adam-adae-1-0,Occurrence Flag Variables,AOCCSFL,Perm,45,1st Occurrence of SOC Flag,,Char,
adam,adam-adae-1-0,Occurrence Flag Variables,AOCCPFL,Perm,46,1st Occurrence of Preferred Term Flag,,Char,
adam,adam-adae-1-0,Occurrence Flag Variables,AOCCIFL,Perm,47,1st Max Sev./Int. Occurrence Flag,,Char,
adam,adam-adae-1-0,Occurrence Flag Variables,AOCCSIFL,Perm,48,1st Max Sev./Int. Occur Within SOC Flag,,Char,
adam,adam-adae-1-0,Occurrence Flag Variables,AOCCPIFL,Perm,49,1st Max Sev./Int. Occur Within PT Flag,,Char,
adam,adam-adae-1-0,Occurrence Flag Variables,AOCCzzFL,Perm,50,1st Occurrence of ....,,Char,
adam,adam-adae-1-0,Treatment Variables,DOSEAEON,Perm,51,Study Drug Dose at AE Onset,,Num,
adam,adam-adae-1-0,Treatment Variables,DOSAEONU,Cond,52,Study Drug Dose at AE Onset Units,,Char,
adam,adam-adae-1-0,Treatment Variables,DOSECUM,Perm,53,Cumulative Study Drug Dose,,Num,
adam,adam-adae-1-0,Treatment Variables,DOSECUMU,Cond,54,Cumulative Study Drug Dose Units,,Char,
adam,adam-adae-1-0,Descriptive Variables,AESER,Req,55,Serious Event,,Char,C66742
adam,adam-adae-1-0,Descriptive Variables,AESEV,Perm,56,Severity/Intensity,,Char,C66769
adam,adam-adae-1-0,Descriptive Variables,AESEVN,Perm,57,Severity/Intensity (N),,Num,
adam,adam-adae-1-0,Descriptive Variables,ASEV,Perm,58,Analysis Severity/Intensity,,Char,
adam,adam-adae-1-0,Descriptive Variables,ASEVN,Perm,59,Analysis Severity/Intensity (N),,Num,
adam,adam-adae-1-0,Descriptive Variables,SEVGRy,Perm,60,Pooled Severity Group y,,Char,
adam,adam-adae-1-0,Descriptive Variables,SEVGRyN,Perm,61,Pooled Severity Group y (N),,Num,
adam,adam-adae-1-0,Descriptive Variables,AEREL,Perm,62,Causality,,Char,
adam,adam-adae-1-0,Descriptive Variables,AERELN,Perm,63,Causality (N),,Num,
adam,adam-adae-1-0,Descriptive Variables,AREL,Perm,64,Analysis Causality,,Char,
adam,adam-adae-1-0,Descriptive Variables,ARELN,Perm,65,Analysis Causality (N),,Num,
adam,adam-adae-1-0,Descriptive Variables,RELGRy,Perm,66,Pooled Causality Group y,,Char,
adam,adam-adae-1-0,Descriptive Variables,RELGRyN,Perm,67,Pooled Causality Group y (N),,Num,
adam,adam-adae-1-0,Descriptive Variables,AETOXGR,Perm,68,Standard Toxicity Grade,,Char,
adam,adam-adae-1-0,Descriptive Variables,AETOXGRN,Perm,69,Standard Toxicity Grade (N),,Num,
adam,adam-adae-1-0,Descriptive Variables,ATOXGR,Perm,70,Analysis Toxicity Grade,,Char,
adam,adam-adae-1-0,Descriptive Variables,ATOXGRN,Perm,71,Analysis Toxicity Grade (N),,Num,
adam,adam-adae-1-0,Descriptive Variables,TOXGGRy,Perm,72,Pooled Toxicity Grade Group y,,Char,
adam,adam-adae-1-0,Descriptive Variables,TOXGGRyN,Perm,73,Pooled Toxicity Grade y (N),,Num,
adam,adam-adae-1-0,Descriptive Variables,AEACN,Perm,74,Action Taken with Study Treatment,,Char,C66767
adam,adam-adae-1-0,Standardized MedDRA Query Variables,SMQzzNAM,Cond,75,SMQ zz Name,,Char,
adam,adam-adae-1-0,Standardized MedDRA Query Variables,SMQzzCD,Perm,76,SMQ zz Code,,Num,
adam,adam-adae-1-0,Standardized MedDRA Query Variables,SMQzzSC,Cond,77,SMQ zz Scope,,Char,
adam,adam-adae-1-0,Standardized MedDRA Query Variables,SMQzzSCN,Perm,78,SMQ zz Scope (N),,Num,
adam,adam-adae-1-0,Standardized MedDRA Query Variables,CQzzNAM,Cond,79,Customized Query zz Name,,Char,
adam,adam-adae-1-0,Original or Prior MedDRA Coding Variables,DECDORGy,Perm,80,PT in Original Dictionary y,,Char,
adam,adam-adae-1-0,Original or Prior MedDRA Coding Variables,BDSYORGy,Perm,81,SOC in Original Dictionary y,,Char,
adam,adam-adae-1-0,Original or Prior MedDRA Coding Variables,HLGTORGy,Perm,82,HLGT in Original Dictionary y,,Char,
adam,adam-adae-1-0,Original or Prior MedDRA Coding Variables,HLTORGy,Perm,83,HLT in Original Dictionary y,,Char,
adam,adam-adae-1-0,Original or Prior MedDRA Coding Variables,LLTORGy,Perm,84,LLT in Original Dictionary y,,Char,
adam,adam-adae-1-0,Original or Prior MedDRA Coding Variables,LLTNORGy,Perm,85,LLT Code in Original Dictionary y,,Char,
adam,adam-md-1-0,Study Identifier,STUDYID,Req,1,Study Identifier,,Char,
adam,adam-md-1-0,Study Identifier,SPDEVID,Req,2,Sponsor Device Identifier,,Char,
adam,adam-md-1-0,Study Identifier,USUBJID,Cond,3,Unique Subject Identifier,,Char,
adam,adam-md-1-0,Device Grouping,DEVGRy,Perm,1,Pooled Device Group y,,Char,
adam,adam-md-1-0,Device Grouping,DEVGRyN,Perm,2,Pooled Device Group y (N),,Num,
adam,adam-md-1-0,Device Grouping,DEVTYGy,Perm,3,Pooled Device Type Group y,,Char,
adam,adam-md-1-0,Device Grouping,DEVTYGyN,Perm,4,Pooled Device Type Group y (N),,Num,
adam,adam-md-1-0,Device Grouping,MODELGy,Perm,5,Pooled Device Model Group y,,Char,
adam,adam-md-1-0,Device Grouping,MODELGyN,Perm,6,Pooled Device Model Group y (N),,Num,
adam,adam-md-1-0,Overall Device Dates and Flag,DEVSDT,Req,1,Date of First Exposure to Device,,Num,
adam,adam-md-1-0,Overall Device Dates and Flag,DEVEDT,Req,2,Date of Last Exposure to Device,,Num,
adam,adam-md-1-0,Overall Device Dates and Flag,DEVAFL,Perm,3,Device Active Flag,,Char,C66742
adam,adam-md-1-0,Device Implant and Explant Dates,DEVIPDT,Cond,1,Date Device Implanted,,Num,
adam,adam-md-1-0,Device Implant and Explant Dates,DEVXPDT,Cond,2,Date Device Explanted,,Num,
adam,adam-md-1-0,Device Turned On and Turned Off Dates,DEVONDT,Cond,1,Date Device Turned On,,Num,
adam,adam-md-1-0,Device Turned On and Turned Off Dates,DEVOFDT,Cond,2,Date Device Turned Off,,Num,
adam,adam-md-1-0,Device Repositioning and Modification Dates,DEVRPDT,Cond,1,Date Device Repositioned,,Num,
adam,adam-md-1-0,Device Repositioning and Modification Dates,DEVMDDT,Cond,2,Date Device Modified,,Num,
adam,adam-md-1-0,Device Demographics,AGEDST,Perm,1,Subject Age at First Exposure to Device,,Num,
adam,adam-md-1-0,Device Demographics,AGEDSTU,Cond,2,Age at First Exposure to Device Unit,,Char,C66781
adam,adam-md-1-0,Identifier,SPDEVID,Req,1,Sponsor Device Identifier,,Char,
adam,adam-md-1-0,Identifier,USUBJID,Cond,2,Unique Subject Identifier,,Char,
adam,adam-md-1-0,Identifier,ASEQ,Perm,3,Analysis Sequence Number,,Num,
adam,adam-nca-1-0,New Standard Non-Compartmental Analysis,NCAXFL,Perm,1,PK NCA Exclusion Flag,,Char,
adam,adam-nca-1-0,New Standard Non-Compartmental Analysis,NCAXFN,Perm,2,PK NCA Exclusion Flag (N),,Num,
adam,adam-nca-1-0,New Standard Non-Compartmental Analysis,NCAwXRS,Perm,3,Reason w for PK NCA Exclusion,,Char,
adam,adam-nca-1-0,New Standard Non-Compartmental Analysis,NCAwXRSN,Perm,4,Reason for PK NCA Exclusion of w (N),,Num,
adam,adam-nca-1-0,New Standard Non-Compartmental Analysis,PKSUMXF,Perm,5,PK Summary Exclusion Flag,,Char,
adam,adam-nca-1-0,New Standard Non-Compartmental Analysis,PKSUMXFN,Perm,6,PK Summary Exclusion Flag (N),,Num,
adam,adam-nca-1-0,New Standard Non-Compartmental Analysis,METABFL,Cond,7,Metabolite Flag,,Char,
adam,adam-nca-1-0,New Standard Non-Compartmental Analysis,COHORT,Perm,8,Subject Cohort,,Char,
adam,adam-nca-1-0,New Standard Non-Compartmental Analysis,COHORTN,Perm,9,Subject Cohort (N),,Num,
adam,adam-nca-1-0,New Standard Non-Compartmental Analysis,ROUTE,Perm,10,Route,,Char,C66729
adam,adam-nca-1-0,New Standard Non-Compartmental Analysis,TRTRINT,Perm,11,Planned Treatment Interval,,Num,
adam,adam-nca-1-0,New Standard Non-Compartmental Analysis,TRTRINTU,Perm,12,Planned Treatment Interval Units,,Char,C71620
adam,adam-nca-1-0,New Standard Non-Compartmental Analysis,DOSPCTDF,Cond,13,Percent Diff. Nominal vs. Actual Dose,,Num,
adam,adam-nca-1-0,New Standard Non-Compartmental Analysis,DOSEFRQ,Cond,14,Dose Frequency,,Char,C71113
adam,adam-nca-1-0,New Standard Non-Compartmental Analysis,ACYCLE,Perm,15,Analysis Cycle,,Num,
adam,adam-nca-1-0,New Standard Non-Compartmental Analysis,ACYCLEC,Perm,16,Analysis Cycle (C),,Char,
adam,adam-nca-1-0,New Standard Non-Compartmental Analysis,FANLDT,Perm,17,First Date of Dose for Analyte,,Num,
adam,adam-nca-1-0,New Standard Non-Compartmental Analysis,FANLTM,Perm,18,First Time of Dose for Analyte,,Num,
adam,adam-nca-1-0,New Standard Non-Compartmental Analysis,FANLDTM,Perm,19,First Datetime of Dose for Analyte,,Num,
adam,adam-nca-1-0,New Standard Non-Compartmental Analysis,FANLEDT,Perm,20,First End Date of Dose for Analyte,,Num,
adam,adam-nca-1-0,New Standard Non-Compartmental Analysis,FANLETM,Perm,21,First End Time of Dose for Analyte,,Num,
adam,adam-nca-1-0,New Standard Non-Compartmental Analysis,FANLEDTM,Perm,22,First End Datetime of Dose for Analyte,,Num,
adam,adam-nca-1-0,New Standard Non-Compartmental Analysis,PCRFTDT,Req,23,Reference Date of Dose for Analyte,,Num,
adam,adam-nca-1-0,New Standard Non-Compartmental Analysis,PCRFTTM,Req,24,Reference Time of Dose for Analyte,,Num,
adam,adam-nca-1-0,New Standard Non-Compartmental Analysis,PCRFTDTM,Req,25,Reference Datetime of Dose for Analyte,,Num,
adam,adam-nca-1-0,New Standard Non-Compartmental Analysis,PCRFEDT,Cond,26,Reference End Date of Dose for Analyte,,Num,
adam,adam-nca-1-0,New Standard Non-Compartmental Analysis,PCRFETM,Cond,27,Reference End Time of Dose for Analyte,,Num,
adam,adam-nca-1-0,New Standard Non-Compartmental Analysis,PCRFEDTM,Cond,28,Ref. End Datetime of Dose for Analyte,,Num,
adam,adam-nca-1-0,New Standard Non-Compartmental Analysis,NFRLT,Perm,29,Nom. Rel. Time from Analyte First Dose,,Num,
adam,adam-nca-1-0,New Standard Non-Compartmental Analysis,AFRLT,Perm,30,Act. Rel. Time from Analyte First Dose,,Num,
adam,adam-nca-1-0,New Standard Non-Compartmental Analysis,NEFRLT,Perm,31,Nom. Rel. End Time from First Dose,,Num,
adam,adam-nca-1-0,New Standard Non-Compartmental Analysis,AEFRLT,Perm,32,Act. Rel. End Time from First Dose,,Num,
adam,adam-nca-1-0,New Standard Non-Compartmental Analysis,FRLTU,Perm,33,Rel. Time from First Dose Unit,,Char,C85494
adam,adam-nca-1-0,New Standard Non-Compartmental Analysis,NRRLT,Req,34,Nominal Rel. Time from Ref. Dose,,Num,
adam,adam-nca-1-0,New Standard Non-Compartmental Analysis,ARRLT,Req,35,Actual Rel. Time from Ref. Dose,,Num,
adam,adam-nca-1-0,New Standard Non-Compartmental Analysis,MRRLT,Perm,36,Modified Rel. Time from Ref. Dose,,Num,
adam,adam-nca-1-0,New Standard Non-Compartmental Analysis,NERRLT,Perm,37,Nominal Rel. End Time from Ref. Dose,,Num,
adam,adam-nca-1-0,New Standard Non-Compartmental Analysis,AERRLT,Perm,38,Actual Rel. End Time from Ref. Dose,,Num,
adam,adam-nca-1-0,New Standard Non-Compartmental Analysis,MERRLT,Perm,39,Modified Rel. End Time from Ref. Dose,,Num,
adam,adam-nca-1-0,New Standard Non-Compartmental Analysis,RRLTU,Req,40,Rel. Time from Ref. Dose Unit,,Char,C85494
adam,adam-nca-1-0,New Standard Non-Compartmental Analysis,TMPCTDF,Perm,41,Percent Diff. Nominal vs. Actual Time,,Num,
adam,adam-nca-1-0,New Standard Non-Compartmental Analysis,ADOSEDUR,Cond,42,Actual Duration of Treatment Dose,,Num,
adam,adam-nca-1-0,New Standard Non-Compartmental Analysis,NDOSEDUR,Cond,43,Nominal duration of Treatment Dose,,Num,
adam,adam-nca-1-0,New Standard Non-Compartmental Analysis,DOSEDURU,Perm,44,Duration of Treatment Dose Units,,Char,C85494
adam,adam-nca-1-0,New Standard Non-Compartmental Analysis,AVALU,Req,45,Analysis Value Unit,,Char,
adam,adam-nca-1-0,New Standard Non-Compartmental Analysis,PCSPEC,Perm,46,Specimen Material Type,,Char,C78734
adam,adam-nca-1-0,New Standard Non-Compartmental Analysis,PCSTRESC,Cond,47,Character Result/Finding in Std Format,,Char,
adam,adam-nca-1-0,New Standard Non-Compartmental Analysis,PCSTRESU,Cond,48,Standard Units,,Char,C71620
adam,adam-nca-1-0,New Standard Non-Compartmental Analysis,ALLOQ,Cond,49,Analysis Lower Limit of Quantitation,,Num,
adam,adam-nca-1-0,New Standard Non-Compartmental Analysis,PCLLOQ,Cond,50,Lower Limit of Quantitation,,Num,
adam,adam-nca-1-0,New Standard Non-Compartmental Analysis,VOLUME,Cond,51,Volume Value,,Num,
adam,adam-nca-1-0,New Standard Non-Compartmental Analysis,VOLUMEU,Cond,52,Volume Value Unit,,Char,C71620
adam,adam-nca-1-0,New Standard Non-Compartmental Analysis,SPWEIGHT,Cond,53,Specimen Weight Value,,Num,
adam,adam-nca-1-0,New Standard Non-Compartmental Analysis,SPWEIGHU,Cond,54,Specimen Weight Value Unit,,Char,C71620
adam,adam-nca-1-0,New Standard Non-Compartmental Analysis,PCGRPID,Perm,55,Group ID,,Char,
adam,adam-nca-1-0,New Standard Non-Compartmental Analysis,PCSEQ,Cond,56,Sequence Number,,Num,
adam,adam-nca-1-0,Standard   with Stronger Core for Non-Compartmental Analysis,DOSEA,Req,1,Actual Treatment Dose,,Num,
adam,adam-nca-1-0,Standard   with Stronger Core for Non-Compartmental Analysis,DOSEU,Req,2,Treatment Dose Units,,Char,C71620
adam,adam-nca-1-0,Standard   with Stronger Core for Non-Compartmental Analysis,AVISIT,Req,3,Analysis Visit,,Char,
adam,adam-occds-1-0,OCCDS Identifier Variables,STUDYID,Req,1,Study Identifier,,Char,
adam,adam-occds-1-0,OCCDS Identifier Variables,USUBJID,Req,2,Unique Subject Identifier,,Char,
adam,adam-occds-1-0,OCCDS Identifier Variables,SUBJID,Perm,3,Subject Identifier for the Study,,Char,
adam,adam-occds-1-0,OCCDS Identifier Variables,SITEID,Perm,4,Study Site Identifier,,Char,
adam,adam-occds-1-0,OCCDS Identifier Variables,--SEQ,Req,5,Sequence Number,,Num,
adam,adam-occds-1-0,MedDRA Dictionary Coding Variables,--TERM,Req,6,Reported Term,,Char,
adam,adam-occds-1-0,MedDRA Dictionary Coding Variables,--DECOD,Cond,7,Dictionary-Derived Term,,Char,
adam,adam-occds-1-0,MedDRA Dictionary Coding Variables,--BODSYS,Cond,8,Body System or Organ Class,,Char,
adam,adam-occds-1-0,MedDRA Dictionary Coding Variables,--BDSYCD,Perm,9,Body System or Organ Class Code,,Num,
adam,adam-occds-1-0,MedDRA Dictionary Coding Variables,--LLT,Cond,10,Lowest Level Term,,Char,
adam,adam-occds-1-0,MedDRA Dictionary Coding Variables,--LLTCD,Perm,11,Lowest Level Term Code,,Num,
adam,adam-occds-1-0,MedDRA Dictionary Coding Variables,--PTCD,Perm,12,Preferred Term Code,,Num,
adam,adam-occds-1-0,MedDRA Dictionary Coding Variables,--HLT,Cond,13,High Level Term,,Char,
adam,adam-occds-1-0,MedDRA Dictionary Coding Variables,--HLTCD,Perm,14,High Level Term Code,,Num,
adam,adam-occds-1-0,MedDRA Dictionary Coding Variables,--HLGT,Cond,15,High Level Group Term,,Char,
adam,adam-occds-1-0,MedDRA Dictionary Coding Variables,--HLGTCD,Perm,16,High Level Group Term Code,,Num,
adam,adam-occds-1-0,MedDRA Dictionary Coding Variables,--SOC,Cond,17,Primary System Organ Class,,Char,
adam,adam-occds-1-0,MedDRA Dictionary Coding Variables,--SOCCD,Perm,18,Primary System Organ Class Code,,Num,
adam,adam-occds-1-0,WHO Drug Dictionary Coding Variables,CMTRT,Req,19,"Reported Name of Drug, Med, or Therapy ",,Char,
adam,adam-occds-1-0,WHO Drug Dictionary Coding Variables,CMDECOD,Cond,20,Standardized Medication Name,,Char,
adam,adam-occds-1-0,WHO Drug Dictionary Coding Variables,CMCLAS,Perm,21,Medication Class,,Char,
adam,adam-occds-1-0,WHO Drug Dictionary Coding Variables,CMCLASCD,Perm,22,Medication Class Code,,Char,
adam,adam-occds-1-0,WHO Drug Dictionary Coding Variables,ATCy,Cond,23,ATC Level y Text,,Char,
adam,adam-occds-1-0,WHO Drug Dictionary Coding Variables,ATCyCD,Cond,24,ATC Level y Code,,Char,
adam,adam-occds-1-0,Other Categorization Variables,--CAT,Perm,25,Category,,Char,
adam,adam-occds-1-0,Other Categorization Variables,--SCAT,Perm,26,Subcategory,,Char,
adam,adam-occds-1-0,Other Categorization Variables,ACATy,Perm,27,Analysis Category y,,Char,
adam,adam-occds-1-0,Timing Variables,--STDTC,Perm,28,Start Date/Time of Observation,,Char,
adam,adam-occds-1-0,Timing Variables,ASTDT,Cond,29,Analysis Start Date,,Num,
adam,adam-occds-1-0,Timing Variables,ASTTM,Cond,30,Analysis Start Time,,Num,
adam,adam-occds-1-0,Timing Variables,ASTDTM,Cond,31,Analysis Start Date/Time,,Num,
adam,adam-occds-1-0,Timing Variables,ASTDTF,Cond,32,Analysis Start Date Imputation Flag,,Char,C81223
adam,adam-occds-1-0,Timing Variables,ASTTMF,Cond,33,Analysis Start Time Imputation Flag,,Char,C81226
adam,adam-occds-1-0,Timing Variables,--ENDTC,Cond,34,End Date/Time of Observation,,Char,
adam,adam-occds-1-0,Timing Variables,AENDT,Cond,35,Analysis End Date,,Num,
adam,adam-occds-1-0,Timing Variables,AENTM,Cond,36,Analysis End Time,,Num,
adam,adam-occds-1-0,Timing Variables,AENDTM,Cond,37,Analysis End Date/Time,,Num,
adam,adam-occds-1-0,Timing Variables,AENDTF,Cond,38,Analysis End Date Imputation Flag,,Char,C81223
adam,adam-occds-1-0,Timing Variables,AENTMF,Cond,39,Analysis End Time Imputation Flag,,Char,C81226
adam,adam-occds-1-0,Timing Variables,ASTDY,Cond,40,Analysis Start Relative Day,,Num,
adam,adam-occds-1-0,Timing Variables,--STDY,Perm,41,Study Day of Start of Observation,,Num,
adam,adam-occds-1-0,Timing Variables,AENDY,Perm,42,Analysis End Relative Day,,Num,
adam,adam-occds-1-0,Timing Variables,--ENDY,Perm,43,Study Day of End of Observation,,Num,
adam,adam-occds-1-0,Timing Variables,ADURN,Perm,44,Analysis Duration (N),,Num,
adam,adam-occds-1-0,Timing Variables,ADURU,Cond,45,Analysis Duration Units,,Char,C71620
adam,adam-occds-1-0,Timing Variables,--DUR,Perm,46,Duration of XX,,Char,
adam,adam-occds-1-0,Timing Variables,APERIOD,Perm,47,Period,,Num,
adam,adam-occds-1-0,Timing Variables,APERIODC,Perm,48,Period (C),,Char,
adam,adam-occds-1-0,Timing Variables,APHASE,Perm,49,Phase,,Char,
adam,adam-occds-1-0,SDTM Indicator Variables,--OCCUR,Cond,50,XX Occurrence,,Char,
adam,adam-occds-1-0,SDTM Indicator Variables,--PRESP,Cond,51,XX Pre-Specified,,Char,
adam,adam-occds-1-0,OCCDS Indicator Variables,ANLzzFL,Cond,52,Analysis Flag zz,,Char,
adam,adam-occds-1-0,Adverse Events Indicator Variables ,TRTEMFL,Cond,53,Treatment Emergent Analysis Flag,,Char,
adam,adam-occds-1-0,Adverse Events Indicator Variables ,AETRTEM,Perm,54,Treatment Emergent Flag,,Char,
adam,adam-occds-1-0,Concomitant Medications Indicator Variables,ONTRTFL,Cond,55,"On Treatment
Record Flag",,Char,
adam,adam-occds-1-0,Adverse Events and Concomitant Medications Indicator Variables,PREFL,Cond,56,Pre-treatment Flag,,Char,
adam,adam-occds-1-0,Adverse Events and Concomitant Medications Indicator Variables,FUPFL,Cond,57,Follow-up Flag,,Char,
adam,adam-occds-1-0,OCCDS Occurrence Flag Variables,AOCCFL,Perm,58,1st Occurrence within Subject Flag,,Char,
adam,adam-occds-1-0,OCCDS Occurrence Flag Variables,AOCCPFL,Perm,59,1st Occurrence of Preferred Term Flag,,Char,
adam,adam-occds-1-0,OCCDS Occurrence Flag Variables,AOCCIFL,Perm,60,1st Max Sev./Int. Occurrence Flag,,Char,
adam,adam-occds-1-0,OCCDS Occurrence Flag Variables,AOCCPIFL,Perm,61,1st Max Sev./Int. Occur Within PT Flag,,Char,
adam,adam-occds-1-0,OCCDS Occurrence Flag Variables,AOCCzzFL,Perm,62,1st Occurrence of ...,,Char,
adam,adam-occds-1-0,MedDRA Occurrence Flag Variables,AOCCSFL,Perm,63,1st Occurrence of SOC Flag,,Char,
adam,adam-occds-1-0,MedDRA Occurrence Flag Variables,AOCCSIFL,Perm,64,1st Max Sev./Int. Occur Within SOC Flag,,Char,
adam,adam-occds-1-0,Treatment/Dose Variables,DOSEON,Perm,65,"Treatment Dose at
Record Start",,Num,
adam,adam-occds-1-0,Treatment/Dose Variables,DOSCUMA,Perm,66,"Cumulative Actual
Treatment Dose",,Num,
adam,adam-occds-1-0,Treatment/Dose Variables,DOSEU,Cond,67,Treatment Dose Units,,Char,C71620
adam,adam-occds-1-0,Adverse Event Descriptive Variables,AESER,Req,68,Serious Event,,Char,
adam,adam-occds-1-0,Adverse Event Descriptive Variables,AESEV,Perm,69,Severity/Intensity,,Char,C66769
adam,adam-occds-1-0,Adverse Event Descriptive Variables,AESEVN,Perm,70,Severity/Intensity (N),,Num,
adam,adam-occds-1-0,Adverse Event Descriptive Variables,ASEV,Perm,71,Analysis Severity/Intensity,,Char,
adam,adam-occds-1-0,Adverse Event Descriptive Variables,ASEVN,Perm,72,Analysis Severity/Intensity (N),,Num,
adam,adam-occds-1-0,Adverse Event Descriptive Variables,SEVGRy,Perm,73,Pooled Severity Group y,,Char,
adam,adam-occds-1-0,Adverse Event Descriptive Variables,SEVGRyN,Perm,74,Pooled Severity Group y (N),,Num,
adam,adam-occds-1-0,Adverse Event Descriptive Variables,AEREL,Perm,75,Causality,,Char,
adam,adam-occds-1-0,Adverse Event Descriptive Variables,AERELN,Perm,76,Causality (N),,Num,
adam,adam-occds-1-0,Adverse Event Descriptive Variables,AREL,Perm,77,Analysis Causality,,Char,
adam,adam-occds-1-0,Adverse Event Descriptive Variables,ARELN,Perm,78,Analysis Causality (N),,Num,
adam,adam-occds-1-0,Adverse Event Descriptive Variables,RELGRy,Perm,79,Pooled Causality Group y,,Char,
adam,adam-occds-1-0,Adverse Event Descriptive Variables,RELGRyN,Perm,80,Pooled Causality Group y (N),,Num,
adam,adam-occds-1-0,Adverse Event Descriptive Variables,AETOXGR,Perm,81,Standard Toxicity Grade,,Char,
adam,adam-occds-1-0,Adverse Event Descriptive Variables,AETOXGRN,Perm,82,Standard Toxicity Grade (N),,Num,
adam,adam-occds-1-0,Adverse Event Descriptive Variables,ATOXGR,Perm,83,Analysis Toxicity Grade,,Char,
adam,adam-occds-1-0,Adverse Event Descriptive Variables,ATOXGRN,Perm,84,Analysis Toxicity Grade (N),,Num,
adam,adam-occds-1-0,Adverse Event Descriptive Variables,TOXGGRy,Perm,85,Pooled Toxicity Grade Group y,,Char,
adam,adam-occds-1-0,Adverse Event Descriptive Variables,TOXGGRyN,Perm,86,Pooled Toxicity Grade y (N),,Num,
adam,adam-occds-1-0,Adverse Event Descriptive Variables,AEACN,Perm,87,Action Taken with Study Treatment,,Char,C66767
adam,adam-occds-1-0,Concomitant Medications Descriptive Variables,CMSTAT,Perm,88,Completion Status,,Char,
adam,adam-occds-1-0,Concomitant Medications Descriptive Variables,CMINDC,Perm,89,Indication,,Char,
adam,adam-occds-1-0,Concomitant Medications Descriptive Variables,CMDOSE,Perm,90,Dose per Administration,,Num,
adam,adam-occds-1-0,Concomitant Medications Descriptive Variables,CMDOSFRM,Perm,91,Dose Form,,Char,
adam,adam-occds-1-0,Concomitant Medications Descriptive Variables,CMDOSRGM,Perm,92,Intended Dose Regimen,,Char,
adam,adam-occds-1-0,Concomitant Medications Descriptive Variables,CMROUTE,Perm,93,Route of Administration,,Char,
adam,adam-occds-1-0,Standardized MedDRA Query Variables,SMQzzNAM,Cond,94,SMQ zz Name,,Char,
adam,adam-occds-1-0,Standardized MedDRA Query Variables,SMQzzCD,Perm,95,SMQ zz Code,,Num,
adam,adam-occds-1-0,Standardized MedDRA Query Variables,SMQzzSC,Cond,96,SMQ zz Scope,,Char,
adam,adam-occds-1-0,Standardized MedDRA Query Variables,SMQzzSCN,Perm,97,SMQ zz Scope (N),,Num,
adam,adam-occds-1-0,Standardized MedDRA Query Variables,CQzzNAM,Cond,98,Customized Query zz Name,,Char,
adam,adam-occds-1-0,Original or Prior MedDRA Coding Variables,DECDORGw,Perm,99,PT in Original Dictionary w,,Char,
adam,adam-occds-1-0,Original or Prior MedDRA Coding Variables,BDSYORGw,Perm,100,SOC in Original Dictionary w,,Char,
adam,adam-occds-1-0,Original or Prior MedDRA Coding Variables,HLGTORGw,Perm,101,HLGT in Original Dictionary w,,Char,
adam,adam-occds-1-0,Original or Prior MedDRA Coding Variables,HLTORGw,Perm,102,HLT in Original Dictionary w,,Char,
adam,adam-occds-1-0,Original or Prior MedDRA Coding Variables,LLTORGw,Perm,103,LLT in Original Dictionary w,,Char,
adam,adam-occds-1-0,Original or Prior MedDRA Coding Variables,LLTNORGw,Perm,104,LLT Code in Original Dictionary w,,Char,
adam,adam-occds-1-0,Original or Prior WHO Drug Coding Variables,DECDORGw,Perm,105,Standardized Med Name in Orig Dict w,,Char,
adam,adam-occds-1-0,Original or Prior WHO Drug Coding Variables,CLASORGw,Perm,106,Medication Class in Orig Dictionary w,,Char,
adam,adam-occds-1-0,Original or Prior WHO Drug Coding Variables,CLCDORGw,Perm,107,Medication Class Code in Orig Dict w,,Char,
adam,adam-occds-1-0,Original or Prior WHO Drug Coding Variables,ATyCORGw,Perm,108,ATC Level y Code in Orig Dictionary w,,Char,
adam,adam-occds-1-0,Original or Prior WHO Drug Coding Variables,ATyTORGw,Perm,109,ATC Level y Text in Orig Dictionary w,,Char,
adam,adam-occds-1-1,Identifier,STUDYID,Req,1,Study Identifier,,Char,
adam,adam-occds-1-1,Identifier,USUBJID,Req,2,Unique Subject Identifier,,Char,
adam,adam-occds-1-1,Identifier,SUBJID,Perm,3,Subject Identifier for the Study,,Char,
adam,adam-occds-1-1,Identifier,SITEID,Perm,4,Study Site Identifier,,Char,
adam,adam-occds-1-1,Row Identifier,--SEQ,Req,1,Sequence Number,,Num,
adam,adam-occds-1-1,Row Identifier,SRCDOM,Not used,2,Source Data,,Char,
adam,adam-occds-1-1,Row Identifier,SRCSEQ,Not used,3,Source Sequence Number,,Num,
adam,adam-occds-1-1,Row Identifier,ASEQ,Perm,4,Analysis Sequence Number,,Num,
adam,adam-occds-1-1,MedDRA Dictionary Coding,--TERM,Req,1,Reported Term,,Char,
adam,adam-occds-1-1,MedDRA Dictionary Coding,--DECOD,Req,2,Dictionary-Derived Term,,Char,
adam,adam-occds-1-1,MedDRA Dictionary Coding,--BODSYS,Req,3,Body System or Organ Class,,Char,
adam,adam-occds-1-1,MedDRA Dictionary Coding,--BDSYCD,Req,4,Body System or Organ Class Code,,Num,
adam,adam-occds-1-1,MedDRA Dictionary Coding,--LLT,Req,5,Lowest Level Term,,Char,
adam,adam-occds-1-1,MedDRA Dictionary Coding,--LLTCD,Req,6,Lowest Level Term Code,,Num,
adam,adam-occds-1-1,MedDRA Dictionary Coding,--PTCD,Req,7,Preferred Term Code,,Num,
adam,adam-occds-1-1,MedDRA Dictionary Coding,--HLT,Req,8,High Level Term,,Char,
adam,adam-occds-1-1,MedDRA Dictionary Coding,--HLTCD,Req,9,High Level Term Code,,Num,
adam,adam-occds-1-1,MedDRA Dictionary Coding,--HLGT,Req,10,High Level Group Term,,Char,
adam,adam-occds-1-1,MedDRA Dictionary Coding,--HLGTCD,Req,11,High Level Group Term Code,,Num,
adam,adam-occds-1-1,MedDRA Dictionary Coding,--SOC,Req,12,Primary System Organ Class,,Char,
adam,adam-occds-1-1,MedDRA Dictionary Coding,--SOCCD,Req,13,Primary System Organ Class Code,,Num,
adam,adam-occds-1-1,WHO Drug Dictionary Coding,CMTRT,Not Used,1,"Reported Name of Drug, Med, or Therapy",,Char,
adam,adam-occds-1-1,WHO Drug Dictionary Coding,CMDECOD,Not Used,2,Standardized Medication Name,,Char,
adam,adam-occds-1-1,WHO Drug Dictionary Coding,CMCLAS,Not Used,3,Medication Class,,Char,
adam,adam-occds-1-1,WHO Drug Dictionary Coding,CMCLASCD,Not Used,4,Medication Class Code,,Char,
adam,adam-occds-1-1,WHO Drug Dictionary Coding,ATCy,Not Used,5,ATC Level y Text,,Char,
adam,adam-occds-1-1,WHO Drug Dictionary Coding,ATCyCD,Not Used,6,ATC Level y Code,,Char,
adam,adam-occds-1-1,Other Categorization,--CAT,Perm,1,Category,,Char,
adam,adam-occds-1-1,Other Categorization,--SCAT,Perm,2,Subcategory,,Char,
adam,adam-occds-1-1,Other Categorization,ACATy,Perm,3,Analysis Category y,,Char,
adam,adam-occds-1-1,Timing,--STDTC,Req,1,Start Date/Time of Observation,,Char,
adam,adam-occds-1-1,Timing,ASTDT,Req,2,Analysis Start Date,,Num,
adam,adam-occds-1-1,Timing,ASTTM,Cond,3,Analysis Start Time,,Num,
adam,adam-occds-1-1,Timing,ASTDTM,Cond,4,Analysis Start Datetime,,Num,
adam,adam-occds-1-1,Timing,ASTDTF,Cond,5,Analysis Start Date Imputation Flag,,Char,C81223
adam,adam-occds-1-1,Timing,ASTTMF,Cond,6,Analysis Start Time Imputation Flag,,Char,C81226
adam,adam-occds-1-1,Timing,--ENDTC,Req,7,End Date/Time of Observation,,Char,
adam,adam-occds-1-1,Timing,AENDT,Req,8,Analysis End Date,,Num,
adam,adam-occds-1-1,Timing,AENTM,Cond,9,Analysis End Time,,Num,
adam,adam-occds-1-1,Timing,AENDTM,Cond,10,Analysis End Datetime,,Num,
adam,adam-occds-1-1,Timing,AENDTF,Cond,11,Analysis End Date Imputation Flag,,Char,C81223
adam,adam-occds-1-1,Timing,AENTMF,Cond,12,Analysis End Time Imputation Flag,,Char,C81226
adam,adam-occds-1-1,Timing,ASTDY,Req,13,Analysis Start Relative Day,,Num,
adam,adam-occds-1-1,Timing,--STDY,Cond,14,Study Day of Start of Observation*,,Num,
adam,adam-occds-1-1,Timing,AENDY,Req,15,Analysis End Relative Day,,Num,
adam,adam-occds-1-1,Timing,--ENDY,Cond,16,Study Day of End of Observation*,,Num,
adam,adam-occds-1-1,Timing,ADURN,Perm,17,Analysis Duration (N),,Num,
adam,adam-occds-1-1,Timing,ADURU,Cond,18,Analysis Duration Units,,Char,C71620
adam,adam-occds-1-1,Timing,--DUR,Cond,19,Duration of XX,,Char,
adam,adam-occds-1-1,Timing,APERIOD,Cond,20,Period,,Num,
adam,adam-occds-1-1,Timing,APERIODC,Perm,21,Period (C),,Char,
adam,adam-occds-1-1,Timing,APHASE,Perm,22,Phase,,Char,
adam,adam-occds-1-1,SDTM Indicator,--OCCUR,Not used,1,XX Occurrence,,Char,C66742
adam,adam-occds-1-1,SDTM Indicator,--PRESP,Cond,2,XX Pre-Specified,,Char,C66742
adam,adam-occds-1-1,Indicator,ANLzzFL,Cond,1,Analysis Flag zz,,Char,
adam,adam-occds-1-1,Adverse Events Indicator,TRTEMFL,Req,1,Treatment Emergent Analysis Flag,,Char,
adam,adam-occds-1-1,Adverse Events Indicator,TREMxxFL,Cond,2,Treatment Emergent Period xx Flag,,Char,
adam,adam-occds-1-1,Adverse Events Indicator,TRTEMwFL,Perm,3,Treatment Emergent Analysis w Flag,,Char,
adam,adam-occds-1-1,Adverse Events Indicator,AETRTEM,Cond,4,Treatment Emergent Flag,,Char,C66742
adam,adam-occds-1-1,Concomitant Medications Indicator,ONTRTFL,Perm,1,On Treatment Record Flag,,Char,
adam,adam-occds-1-1,Concomitant Medications Indicator,ONTRxxFL,Perm,2,On Treatment Period xx Flag,,Char,
adam,adam-occds-1-1,Concomitant Medications Indicator,ONTRTwFL,Perm,3,On Treatment Record w Flag,,Char,
adam,adam-occds-1-1,Adverse Events and Concomitant Medications Indicator,PREFL,Cond,1,Pre-treatment Flag,,Char,
adam,adam-occds-1-1,Adverse Events and Concomitant Medications Indicator,FUPFL,Cond,2,Follow-up Flag,,Char,
adam,adam-occds-1-1,Occurrence Flag,AOCCFL,Perm,1,1st Occurrence within Subject Flag,,Char,
adam,adam-occds-1-1,Occurrence Flag,AOCCPFL,Perm,2,1st Occurrence of Preferred Term Flag,,Char,
adam,adam-occds-1-1,Occurrence Flag,AOCCIFL,Perm,3,1st Max Sev./Int. Occurrence Flag,,Char,
adam,adam-occds-1-1,Occurrence Flag,AOCCPIFL,Perm,4,1st Max Sev./Int. Occur Within PT Flag,,Char,
adam,adam-occds-1-1,Occurrence Flag,AOCCzzFL,Perm,5,1st Occurrence of ...,,Char,
adam,adam-occds-1-1,MedDRA Occurrence Flag,AOCCSFL,Perm,1,1st Occurrence of SOC Flag,,Char,
adam,adam-occds-1-1,MedDRA Occurrence Flag,AOCCSIFL,Perm,2,1st Max Sev./Int. Occur Within SOC Flag,,Char,
adam,adam-occds-1-1,Treatment/Dose,DOSEON,Perm,1,Treatment Dose at Record Start,,Num,
adam,adam-occds-1-1,Treatment/Dose,DOSCUMA,Perm,2,Cumulative Actual Treatment Dose,,Num,
adam,adam-occds-1-1,Treatment/Dose,DOSEU,Cond,3,Treatment Dose Units,,Char,C71620
adam,adam-occds-1-1,Adverse Event Descriptive,--SER,Req,1,Serious Event,,Char,C66742
adam,adam-occds-1-1,Adverse Event Descriptive,--SEV,Cond,2,Severity/Intensity,,Char,C66769
adam,adam-occds-1-1,Adverse Event Descriptive,--SEVN,Perm,3,Severity/Intensity (N),,Num,
adam,adam-occds-1-1,Adverse Event Descriptive,ASEV,Perm,4,Analysis Severity/Intensity,,Char,
adam,adam-occds-1-1,Adverse Event Descriptive,ASEVN,Perm,5,Analysis Severity/Intensity (N),,Num,
adam,adam-occds-1-1,Adverse Event Descriptive,SEVGRy,Perm,6,Pooled Severity Group y,,Char,
adam,adam-occds-1-1,Adverse Event Descriptive,SEVGRyN,Perm,7,Pooled Severity Group y (N),,Num,
adam,adam-occds-1-1,Adverse Event Descriptive,--REL,Req,8,Causality,,Char,
adam,adam-occds-1-1,Adverse Event Descriptive,--RELN,Perm,9,Causality (N),,Num,
adam,adam-occds-1-1,Adverse Event Descriptive,AREL,Perm,10,Analysis Causality,,Char,
adam,adam-occds-1-1,Adverse Event Descriptive,ARELN,Perm,11,Analysis Causality (N),,Num,
adam,adam-occds-1-1,Adverse Event Descriptive,RELGRy,Perm,12,Pooled Causality Group y,,Char,
adam,adam-occds-1-1,Adverse Event Descriptive,RELGRyN,Perm,13,Pooled Causality Group y (N),,Num,
adam,adam-occds-1-1,Adverse Event Descriptive,--TOXGR,Cond,14,Standard Toxicity Grade,,Char,
adam,adam-occds-1-1,Adverse Event Descriptive,--TOXGRN,Perm,15,Standard Toxicity Grade (N),,Num,
adam,adam-occds-1-1,Adverse Event Descriptive,ATOXGR,Perm,16,Analysis Toxicity Grade,,Char,
adam,adam-occds-1-1,Adverse Event Descriptive,ATOXGRN,Perm,17,Analysis Toxicity Grade (N),,Num,
adam,adam-occds-1-1,Adverse Event Descriptive,TOXGGRy,Perm,18,Pooled Toxicity Grade Group y,,Char,
adam,adam-occds-1-1,Adverse Event Descriptive,TOXGGRyN,Perm,19,Pooled Toxicity Grade Group y (N),,Num,
adam,adam-occds-1-1,Adverse Event Descriptive,--ACN,Cond,20,Action Taken with Study Treatment,,Char,C66767
adam,adam-occds-1-1,Concomitant Medications Descriptive,--STAT,Perm,1,Completion Status,,Char,
adam,adam-occds-1-1,Concomitant Medications Descriptive,--INDC,Perm,2,Indication,,Char,
adam,adam-occds-1-1,Concomitant Medications Descriptive,--DOSE,Perm,3,Dose per Administration,,Num,
adam,adam-occds-1-1,Concomitant Medications Descriptive,--DOSFRM,Perm,4,Dose Form,,Char,
adam,adam-occds-1-1,Concomitant Medications Descriptive,--DOSRGM,Perm,5,Intended Dose Regimen,,Char,
adam,adam-occds-1-1,Concomitant Medications Descriptive,--ROUTE,Perm,6,Route of Administration,,Char,
adam,adam-occds-1-1,Standardized MedDRA Query,SMQzzNAM,Cond,1,SMQ zz Name,,Char,
adam,adam-occds-1-1,Standardized MedDRA Query,SMQzzCD,Perm,2,SMQ zz Code,,Num,
adam,adam-occds-1-1,Standardized MedDRA Query,SMQzzSC,Cond,3,SMQ zz Scope,,Char,
adam,adam-occds-1-1,Standardized MedDRA Query,SMQzzSCN,Perm,4,SMQ zz Scope (N),,Num,
adam,adam-occds-1-1,Standardized MedDRA Query,CQzzNAM,Cond,5,Customized Query zz Name,,Char,
adam,adam-occds-1-1,Standardized MedDRA Query,ADECODy,Perm,6,Analysis Dictionary-Derived Term y,,Char,
adam,adam-occds-1-1,Original or Prior WHO Drug Coding,DECDORGw,Perm,1,Standardized Med Name in Orig Dict w,,Char,
adam,adam-occds-1-1,Original or Prior WHO Drug Coding,CLASORGw,Perm,2,Medication Class in Orig Dictionary w,,Char,
adam,adam-occds-1-1,Original or Prior WHO Drug Coding,CLCDORGw,Perm,3,Medication Class Code in Orig Dict w,,Char,
adam,adam-occds-1-1,Original or Prior WHO Drug Coding,ATyCORGw,Perm,4,ATC Level y Code in Orig Dictionary w,,Char,
adam,adam-occds-1-1,Original or Prior WHO Drug Coding,ATyTORGw,Perm,5,ATC Level y Text in Orig Dictionary w,,Char,
adam,adam-occds-1-1,Original or Prior MedDRA Coding,DECDORGw,Perm,1,PT in Original Dictionary w,,Char,
adam,adam-occds-1-1,Original or Prior MedDRA Coding,BDSYORGw,Perm,2,SOC in Original Dictionary w,,Char,
adam,adam-occds-1-1,Original or Prior MedDRA Coding,HLGTORGw,Perm,3,HLGT in Original Dictionary w,,Char,
adam,adam-occds-1-1,Original or Prior MedDRA Coding,HLTORGw,Perm,4,HLT in Original Dictionary w,,Char,
adam,adam-occds-1-1,Original or Prior MedDRA Coding,LLTORGw,Perm,5,LLT in Original Dictionary w,,Char,
adam,adam-occds-1-1,Original or Prior MedDRA Coding,LLTNORGw,Perm,6,LLT Code in Original Dictionary w,,Char,
adam,adam-poppk-1-0,Population Pharmacokinetics Analysis,PROJID,Perm,1,Project Identifier,,Char,
adam,adam-poppk-1-0,Population Pharmacokinetics Analysis,PROJIDN,Perm,2,Project Identifier (N),,Num,
adam,adam-poppk-1-0,Population Pharmacokinetics Analysis,STUDYID,Req,3,Study Identifier,,Char,
adam,adam-poppk-1-0,Population Pharmacokinetics Analysis,STUDYIDN,Perm,4,Study Identifier (N),,Num,
adam,adam-poppk-1-0,Population Pharmacokinetics Analysis,PART,Cond,5,Part of the Study,,Num,
adam,adam-poppk-1-0,Population Pharmacokinetics Analysis,SUBJTYP,Perm,6,Subject Type,,Num,
adam,adam-poppk-1-0,Population Pharmacokinetics Analysis,SUBJTYPC,Perm,7,Subject Type (C),,Char,
adam,adam-poppk-1-0,Population Pharmacokinetics Analysis,USUBJID,Req,8,Unique Subject Identifier,,Char,
adam,adam-poppk-1-0,Population Pharmacokinetics Analysis,USUBJIDN,Req,9,Unique Subject Identifier (N),,Num,
adam,adam-poppk-1-0,Population Pharmacokinetics Analysis,SUBJID,Perm,10,Subject Identifier for the Study,,Char,
adam,adam-poppk-1-0,Population Pharmacokinetics Analysis,SUBJIDN,Perm,11,Subject Identifier for the Study (N),,Num,
adam,adam-poppk-1-0,Population Pharmacokinetics Analysis,SITEID,Perm,12,Study Site Identifier,,Char,
adam,adam-poppk-1-0,Population Pharmacokinetics Analysis,SITEIDN,Perm,13,Study Site Identifier (N),,Num,
adam,adam-poppk-1-0,Population Pharmacokinetics Analysis,RECSEQ,Perm,14,Record Sequence,,Num,
adam,adam-poppk-1-0,Population Pharmacokinetics Analysis,AFRLT,Req,15,Actual Rel Time from First Dose,,Num,
adam,adam-poppk-1-0,Population Pharmacokinetics Analysis,RLTU,Perm,16,Relative Time Unit,,Char,
adam,adam-poppk-1-0,Population Pharmacokinetics Analysis,APRLT,Perm,17,Actual Rel Time from Previous Dose,,Num,
adam,adam-poppk-1-0,Population Pharmacokinetics Analysis,NFRLT,Perm,18,Nominal Rel Time from First Dose,,Num,
adam,adam-poppk-1-0,Population Pharmacokinetics Analysis,NPRLT,Perm,19,Nominal Rel Time from Previous Dose,,Num,
adam,adam-poppk-1-0,Population Pharmacokinetics Analysis,OCC,Perm,20,Occasion,,Num,
adam,adam-poppk-1-0,Population Pharmacokinetics Analysis,EXCLF,Cond,21,Record Exclusion,,Num,
adam,adam-poppk-1-0,Population Pharmacokinetics Analysis,EXCLFCOM,Cond,22,Comment for the Record Exclusion,,Char,
adam,adam-poppk-1-0,Population Pharmacokinetics Analysis,FLGREAS,Perm,23,Identification of Data Issue Reason,,Num,
adam,adam-poppk-1-0,Population Pharmacokinetics Analysis,FLGREASC,Perm,24,Identification of Data Issue Reason (C),,Char,
adam,adam-poppk-1-0,Population Pharmacokinetics Analysis,EVID,Req,25,Event ID,,Num,
adam,adam-poppk-1-0,Population Pharmacokinetics Analysis,DVID,Perm,26,Dependent Variable Name,,Char,
adam,adam-poppk-1-0,Population Pharmacokinetics Analysis,DVIDN,Perm,27,Dependent Variable Name (N),,Num,
adam,adam-poppk-1-0,Population Pharmacokinetics Analysis,CMT,Perm,28,Compartment,,Num,
adam,adam-poppk-1-0,Population Pharmacokinetics Analysis,DV,Req,29,Dependent Variable Result,,Num,
adam,adam-poppk-1-0,Population Pharmacokinetics Analysis,AVAL,Cond,30,Analysis Value,,Num,
adam,adam-poppk-1-0,Population Pharmacokinetics Analysis,AVALU,Perm,31,Dependent Variable Unit,,Char,
adam,adam-poppk-1-0,Population Pharmacokinetics Analysis,USTRESC,Perm,32,Result or Finding in Standard Format,,Char,
adam,adam-poppk-1-0,Population Pharmacokinetics Analysis,MDV,Req,33,Missing Dependent Variable Result,,Num,
adam,adam-poppk-1-0,Population Pharmacokinetics Analysis,AULOQ,Perm,34,Analysis Upper Limit of Quantitation,,Num,
adam,adam-poppk-1-0,Population Pharmacokinetics Analysis,ALLOQ,Perm,35,Analysis Lower Limit of Quantitation,,Num,
adam,adam-poppk-1-0,Population Pharmacokinetics Analysis,BLQFL,Cond,36,Below Lower Limit of Quant Flag,,Char,
adam,adam-poppk-1-0,Population Pharmacokinetics Analysis,BLQFN,Perm,37,Below Lower Limit of Quant Flag (N),,Num,
adam,adam-poppk-1-0,Population Pharmacokinetics Analysis,ALQFL,Cond,38,Above the Upper Limit of Quant Flag,,Char,
adam,adam-poppk-1-0,Population Pharmacokinetics Analysis,ALQFN,Perm,39,Above the Upper Limit of Quant Flag (N),,Num,
adam,adam-poppk-1-0,Population Pharmacokinetics Analysis,AMT,Req,40,Actual Amount of Dose Received (unit),,Num,
adam,adam-poppk-1-0,Population Pharmacokinetics Analysis,DOSEA,Perm,41,Actual Treatment Dose (unit),,Num,
adam,adam-poppk-1-0,Population Pharmacokinetics Analysis,DOSETDD,Perm,42,Total Daily Amt of Dose Received (unit),,Num,
adam,adam-poppk-1-0,Population Pharmacokinetics Analysis,DOSEDUR,Perm,43,Duration Of Dose Administration (unit),,Num,
adam,adam-poppk-1-0,Population Pharmacokinetics Analysis,RATE,Perm,44,Infusion Rate (unit),,Num,
adam,adam-poppk-1-0,Population Pharmacokinetics Analysis,II,Perm,45,Dosing Interval (unit),,Num,
adam,adam-poppk-1-0,Population Pharmacokinetics Analysis,ADDL,Perm,46,Number Of Additional Doses,,Num,
adam,adam-poppk-1-0,Population Pharmacokinetics Analysis,SS,Perm,47,Steady State,,Num,
adam,adam-poppk-1-0,Population Pharmacokinetics Analysis,FORM,Perm,48,Drug Formulation,,Char,C66726
adam,adam-poppk-1-0,Population Pharmacokinetics Analysis,FORMN,Perm,49,Drug Formulation (N),,Num,
adam,adam-poppk-1-0,Population Pharmacokinetics Analysis,ROUTE,Perm,50,Route of Administration,,Char,C66729
adam,adam-poppk-1-0,Population Pharmacokinetics Analysis,ROUTEN,Perm,51,Route of Administration (N),,Num,
adam,adam-poppk-1-0,Population Pharmacokinetics Analysis,ACYCLE,Perm,52,Analysis Cycle,,Num,
adam,adam-poppk-1-0,Population Pharmacokinetics Analysis,ACYCLEC,Perm,53,Analysis Cycle (C),,Char,
adam,adam-poppk-1-0,Population Pharmacokinetics Analysis,COHORT,Perm,54,Cohort Subject Enrolled Into,,Num,
adam,adam-poppk-1-0,Population Pharmacokinetics Analysis,COHORTC,Perm,55,Cohort Subject Enrolled into (C),,Char,
adam,adam-poppk-1-0,Population Pharmacokinetics Analysis,UDTC,Perm,56,Date and Time of the Event,,Char,
adam,adam-poppk-1-0,Population Pharmacokinetics Analysis  - Covariates,WT,Perm,1,Body Weight (unit),,Num,
adam,adam-poppk-1-0,Population Pharmacokinetics Analysis  - Covariates,WTBL,Perm,2,Baseline Body Weight (unit),,Num,
adam,adam-poppk-1-0,Population Pharmacokinetics Analysis  - Covariates,HTBL,Perm,3,Baseline Body Height (unit),,Num,
adam,adam-poppk-1-0,Population Pharmacokinetics Analysis  - Covariates,BMIBL,Perm,4,Baseline Body Mass Index (unit),,Num,
adam,adam-poppk-1-0,Population Pharmacokinetics Analysis  - Covariates,BSABL,Perm,5,Body Surface Area at Baseline (unit),,Num,
adam,adam-poppk-1-0,Population Pharmacokinetics Analysis  - Covariates,AGE,Perm,6,Age,,Num,
adam,adam-poppk-1-0,Population Pharmacokinetics Analysis  - Covariates,AGETPT,Perm,7,Age at Analysis Timepoint (unit),,Num,
adam,adam-poppk-1-0,Population Pharmacokinetics Analysis  - Covariates,SEX,Req,8,Sex,,Char,C66731
adam,adam-poppk-1-0,Population Pharmacokinetics Analysis  - Covariates,SEXN,Perm,9,Sex (N),,Num,
adam,adam-poppk-1-0,Population Pharmacokinetics Analysis  - Covariates,RACE,Req,10,Race,,Char,C74457
adam,adam-poppk-1-0,Population Pharmacokinetics Analysis  - Covariates,RACEN,Perm,11,Race (N),,Num,
adam,adam-poppk-1-0,Population Pharmacokinetics Analysis  - Covariates,ARACE,Perm,12,Analysis Race,,Char,
adam,adam-poppk-1-0,Population Pharmacokinetics Analysis  - Covariates,ARACEN,Perm,13,Analysis Race (N),,Num,
adam,adam-poppk-1-0,Population Pharmacokinetics Analysis  - Covariates,AETHNIC,Perm,14,Analysis Ethnicity,,Char,
adam,adam-poppk-1-0,Population Pharmacokinetics Analysis  - Covariates,AETHNICN,Perm,15,Analysis Ethnicity (N),,Num,
adam,adam-poppk-1-0,Population Pharmacokinetics Analysis  - Covariates,REGIONy,Perm,16,Geographic Region y,,Char,
adam,adam-poppk-1-0,Population Pharmacokinetics Analysis  - Covariates,REGIONyN,Perm,17,Geographic Region y (N),,Num,
adam,adam-poppk-1-0,Population Pharmacokinetics Analysis  - Covariates,COUNTRY,Perm,18,Country,,Char,
adam,adam-poppk-1-0,Population Pharmacokinetics Analysis  - Covariates,COUNTRYL,Perm,19,Country Full Name,,Char,
adam,adam-poppk-1-0,Population Pharmacokinetics Analysis  - Covariates,COUNTRYN,Perm,20,Country (N),,Num,
adam,adam-poppk-1-0,Population Pharmacokinetics Analysis  - Covariates,CREATBL,Perm,21,Baseline Creatinine Serum (unit),,Num,
adam,adam-poppk-1-0,Population Pharmacokinetics Analysis  - Covariates,CRCLBL,Perm,22,Baseline Creatinine Clearance (unit),,Num,
adam,adam-poppk-1-0,Population Pharmacokinetics Analysis  - Covariates,EGFRBL,Perm,23,Baseline eGFR (unit),,Num,
adam,adam-poppk-1-0,Population Pharmacokinetics Analysis  - Covariates,TBILBL,Perm,24,Baseline Total Bilirubin (unit),,Num,
adam,adam-poppk-1-0,Population Pharmacokinetics Analysis  - Covariates,ASTBL,Perm,25,Baseline Aspartate transaminase (unit),,Num,
adam,adam-poppk-1-0,Population Pharmacokinetics Analysis  - Covariates,ALTBL,Perm,26,Baseline Alanine transaminase (unit),,Num,
adam,adam-tte-1-0,Subject Identifier Variable,STUDYID,Req,1,Study Identifier,,Char,
adam,adam-tte-1-0,Subject Identifier Variable,USUBJID,Req,2,Unique Subject Identifier,,Char,
adam,adam-tte-1-0,Subject Identifier Variable,ASEQ,Perm,3,Analysis Sequence Number,,Num,
adam,adam-tte-1-0,Treatment Variables,TRTP,Req,4,Planned Treatment,,Char,
adam,adam-tte-1-0,Treatment Variables,TRTPN,Perm,5,Planned Treatment (N),,Num,
adam,adam-tte-1-0,Treatment Variables,TRTA,Cond,6,Actual Treatment,,Char,
adam,adam-tte-1-0,Treatment Variables,TRTAN,Perm,7,Actual Treatment (N),,Num,
adam,adam-tte-1-0,Treatment Variables,TRTxxP,Cond,8,Planned Treatment for Period xx,,Char,
adam,adam-tte-1-0,Treatment Variables,TRTxxPN,Perm,9,Planned Treatment for Period xx (N),,Num,
adam,adam-tte-1-0,Treatment Variables,TRTxxA,Cond,10,Actual Treatment for Period xx,,Char,
adam,adam-tte-1-0,Treatment Variables,TRTxxAN,Perm,11,Actual Treatment for Period xx (N),,Num,
adam,adam-tte-1-0,Analysis Parameter Variables,PARAM,Req,12,Parameter,,Char,
adam,adam-tte-1-0,Analysis Parameter Variables,PARAMCD,Req,13,Parameter Code,,Char,
adam,adam-tte-1-0,Analysis Parameter Variables,AVAL,Req,14,Analysis Value,,Num,
adam,adam-tte-1-0,Time-to-Event Variables ,STARTDT,Perm,15,Time to Event Origin Date for Subject,,Num,
adam,adam-tte-1-0,Time-to-Event Variables ,STARTDTM,Perm,16,Time to Event Origin Date/Time,,Num,
adam,adam-tte-1-0,Time-to-Event Variables ,STARTDTF,Cond,17,Origin Date Imputation Flag,,Char,C81223
adam,adam-tte-1-0,Time-to-Event Variables ,STARTTMF,Cond,18,Origin Time Imputation Flag,,Char,C81226
adam,adam-tte-1-0,Time-to-Event Variables ,CNSR,Cond,24,Censor,,Num,
adam,adam-tte-1-0,Time-to-Event Variables ,EVNTDESC,Perm,28,Event or Censoring Description,,Char,
adam,adam-tte-1-0,Time-to-Event Variables ,CNSDTDSC,Perm,29,Censor Date Description,,Char,
adam,adam-tte-1-0,Timing Variables,ADT,Perm,19,Analysis Date,,Num,
adam,adam-tte-1-0,Timing Variables,ADTM,Perm,20,Analysis Date/Time,,Num,
adam,adam-tte-1-0,Timing Variables,ADTF,Cond,21,Analysis Date Imputation Flag,,Char,C81223
adam,adam-tte-1-0,Timing Variables,ATMF,Cond,22,Analysis Time Imputation Flag,,Char,C81226
adam,adam-tte-1-0,Timing Variables,AVISIT,Cond,23,Analysis Visit,,Char,
adam,adam-tte-1-0,Data Point Traceability Variables,SRCDOM,Perm,25,Source Data,,Char,
adam,adam-tte-1-0,Data Point Traceability Variables,SRCVAR,Perm,26,Source Variable,,Char,
adam,adam-tte-1-0,Data Point Traceability Variables,SRCSEQ,Perm,27,Source Sequence Number,,Num,
adam,adamig-1-0,Study Identifiers,STUDYID,Req,1,Study Identifier,,Char,
adam,adamig-1-0,Study Identifiers,USUBJID,Req,2,Unique Subject Identifier,,Char,
adam,adamig-1-0,Study Identifiers,SUBJID,Req,3,Subject Identifier for the Study,,Char,
adam,adamig-1-0,Study Identifiers,SITEID,Req,4,Study Site Identifier,,Char,
adam,adamig-1-0,Study Identifiers,SITEGRy,Perm,5,Pooled Site Group y,,Char,
adam,adamig-1-0,Study Identifiers,SITEGRyN,Perm,6,Pooled Site Group y (N),,Num,
adam,adamig-1-0,Subject Demographics,AGE,Req,7,Age,,Num,
adam,adamig-1-0,Subject Demographics,AGEU,Req,8,Age Units,,Char,C66781
adam,adamig-1-0,Subject Demographics,SEX,Req,9,Sex,,Char,C66731
adam,adamig-1-0,Subject Demographics,RACE,Req,10,Race,,Char,C74457
adam,adamig-1-0,Subject Demographics,RACEGRy,Perm,11,Pooled Race Group y,,Char,
adam,adamig-1-0,Subject Demographics,RACEGRyN,Perm,12,Pooled Race Group y (N),,Num,
adam,adamig-1-0,Population Indicator(s),FASFL,Cond,13,Full Analysis Set Population Flag,,Char,
adam,adamig-1-0,Population Indicator(s),SAFFL,Cond,14,Safety Population Flag,,Char,
adam,adamig-1-0,Population Indicator(s),ITTFL,Cond,15,Intent-To-Treat Population Flag,,Char,
adam,adamig-1-0,Population Indicator(s),PPROTFL,Cond,16,Per-Protocol Population Flag,,Char,
adam,adamig-1-0,Population Indicator(s),COMPLFL,Cond,17,Completers Population Flag,,Char,
adam,adamig-1-0,Population Indicator(s),RANDFL,Cond,18,Randomized Population Flag,,Char,
adam,adamig-1-0,Population Indicator(s),ENRLFL,Cond,19,Enrolled Population Flag,,Char,
adam,adamig-1-0,Treatment Variables,ARM,Req,20,Description of Planned Arm,,Char,
adam,adamig-1-0,Treatment Variables,TRTxxP,Req,21,Planned Treatment for Period xx,,Char,
adam,adamig-1-0,Treatment Variables,TRTxxPN,Perm,22,Planned Treatment for Period xx (N),,Num,
adam,adamig-1-0,Treatment Variables,TRTxxA,Cond,23,Actual Treatment for Period xx,,Char,
adam,adamig-1-0,Treatment Variables,TRTxxAN,Perm,24,Actual Treatment for Period xx (N),,Num,
adam,adamig-1-0,Treatment Variables,TRTSEQP,Cond,25,Planned Sequence of Treatments,,Char,
adam,adamig-1-0,Treatment Variables,TRTSEQPN,Perm,26,Planned Sequence of Treatments (N),,Num,
adam,adamig-1-0,Treatment Variables,TRTSEQA,Cond,27,Actual Sequence of Treatments,,Char,
adam,adamig-1-0,Treatment Variables,TRTSEQAN,Perm,28,Actual Sequence of Treatments (N),,Num,
adam,adamig-1-0,Treatment Variables,TRxxPGy,Perm,29,Planned Pooled Treatment y for Period xx,,Char,
adam,adamig-1-0,Treatment Variables,TRxxPGyN,Perm,30,Planned Pooled Trt y for Period xx (N),,Char,
adam,adamig-1-0,Treatment Variables,TRxxAGy,Cond,31,Actual Pooled Treatment y for Period xx,,Char,
adam,adamig-1-0,Treatment Variables,TRxxAGyN,Perm,32,Actual Pooled Trt y for Period xx (N),,Char,
adam,adamig-1-0,Treatment Variables,TRTP,Req,5,Planned Treatment,,Char,
adam,adamig-1-0,Treatment Variables,TRTPN,Perm,6,Planned Treatment (N),,Num,
adam,adamig-1-0,Treatment Variables,TRTA,Cond,7,Actual Treatment,,Char,
adam,adamig-1-0,Treatment Variables,TRTAN,Perm,8,Actual Treatment (N),,Num,
adam,adamig-1-0,Treatment Variables,TRTPGy,Perm,9,Planned Pooled Treatment y,,Char,
adam,adamig-1-0,Treatment Variables,TRTPGyN,Perm,10,Planned Pooled Treatment y (N),,Num,
adam,adamig-1-0,Treatment Variables,TRTAGy,Cond,11,Actual Pooled Treatment y,,Char,
adam,adamig-1-0,Treatment Variables,TRTAGyN,Perm,12,Actual Pooled Treatment y (N),,Num,
adam,adamig-1-0,Trial Dates,RANDDT,Cond,33,Date of Randomization,,Num,
adam,adamig-1-0,Trial Dates,TRTSDT,Cond,34,Date of First Exposure to Treatment,,Num,
adam,adamig-1-0,Trial Dates,TRTSTM,Perm,35,Time of First Exposure to Treatment,,Num,
adam,adamig-1-0,Trial Dates,TRTSDTM,Cond,36,Datetime of First Exposure to Treatment,,Num,
adam,adamig-1-0,Trial Dates,TRTSDTF,Cond,37,Date of First Exposure Imput. Flag,,Char,C81223
adam,adamig-1-0,Trial Dates,TRTSTMF,Cond,38,Time of First Exposure Imput. Flag,,Char,C81226
adam,adamig-1-0,Trial Dates,TRTEDT,Cond,39,Date of Last Exposure to Treatment,,Num,
adam,adamig-1-0,Trial Dates,TRTETM,Perm,40,Time of Last Exposure to Treatment,,Num,
adam,adamig-1-0,Trial Dates,TRTEDTM,Cond,41,Datetime of Last Exposure to Treatment,,Num,
adam,adamig-1-0,Trial Dates,TRTEDTF,Cond,42,Date of Last Exposure Imput. Flag,,Char,C81223
adam,adamig-1-0,Trial Dates,TRTETMF,Cond,43,Time of Last Exposure Imput. Flag,,Char,C81226
adam,adamig-1-0,Trial Dates,TRxxSDT,Cond,44,Date of First Exposure in Period xx,,Num,
adam,adamig-1-0,Trial Dates,TRxxSTM,Cond,45,Time of First Exposure in Period xx,,Num,
adam,adamig-1-0,Trial Dates,TRxxSDTM,Cond,46,Datetime of First Exposure in Period xx,,Num,
adam,adamig-1-0,Trial Dates,TRxxSDTF,Cond,47,Date 1st Exposure Period xx Imput. Flag,,Char,C81223
adam,adamig-1-0,Trial Dates,TRxxSTMF,Cond,48,Time 1st Exposure Period xx Imput. Flag,,Char,C81226
adam,adamig-1-0,Trial Dates,TRxxEDT,Cond,49,Date of Last Exposure in Period xx,,Num,
adam,adamig-1-0,Trial Dates,TRxxETM,Cond,50,Time of Last Exposure in Period xx,,Num,
adam,adamig-1-0,Trial Dates,TRxxEDTM,Cond,51,Datetime of Last Exposure in Period xx,,Num,
adam,adamig-1-0,Trial Dates,TRxxEDTF,Cond,52,Date Last Exposure Period xx Imput. Flag,,Char,C81223
adam,adamig-1-0,Trial Dates,TRxxETMF,Cond,53,Time Last Exposure Period xx Imput. Flag,,Char,C81226
adam,adamig-1-0,Trial Dates,APxxSDT,Perm,54,Period xx Start Date,,Num,
adam,adamig-1-0,Trial Dates,APxxSTM,Perm,55,Period xx Start Time,,Num,
adam,adamig-1-0,Trial Dates,APxxSDTM,Perm,56,Period xx Start Datetime,,Num,
adam,adamig-1-0,Trial Dates,APxxSDTF,Cond,57,Period xx Start Date Imput. Flag,,Char,C81223
adam,adamig-1-0,Trial Dates,APxxSTMF,Cond,58,Period xx Start Time Imput. Flag,,Char,C81226
adam,adamig-1-0,Trial Dates,APxxEDT,Perm,59,Period xx End Date,,Num,
adam,adamig-1-0,Trial Dates,APxxETM,Perm,60,Period xx End Time,,Num,
adam,adamig-1-0,Trial Dates,APxxEDTM,Perm,61,Period xx End Date/Time,,Num,
adam,adamig-1-0,Trial Dates,APxxEDTF,Cond,62,Period xx End Date Imput. Flag,,Char,C81223
adam,adamig-1-0,Trial Dates,APxxETMF,Cond,63,Period End Time Imput. Flag,,Char,C81226
adam,adamig-1-0,Subject Identifier Variable,STUDYID,Req,1,Study Identifier,,Char,
adam,adamig-1-0,Subject Identifier Variable,USUBJID,Req,2,Unique Subject Identifier,,Char,
adam,adamig-1-0,Subject Identifier Variable,SUBJID,Perm,3,Subject Identifier for the Study,,Char,
adam,adamig-1-0,Subject Identifier Variable,SITEID,Perm,4,Study Site Identifier,,Char,
adam,adamig-1-0,Timing Variables,ADT,Perm,13,Analysis Date,,Num,
adam,adamig-1-0,Timing Variables,ATM,Perm,14,Analysis Time,,Num,
adam,adamig-1-0,Timing Variables,ADTM,Perm,15,Analysis Date/Time,,Num,
adam,adamig-1-0,Timing Variables,ADY,Perm,16,Analysis Relative Day,,Num,
adam,adamig-1-0,Timing Variables,ADTF,Cond,17,Analysis Date Imputation Flag,,Char,C81223
adam,adamig-1-0,Timing Variables,ATMF,Cond,18,Analysis Time Imputation Flag,,Char,C81226
adam,adamig-1-0,Timing Variables,ASTDT,Perm,19,Analysis Start Date,,Num,
adam,adamig-1-0,Timing Variables,ASTTM,Perm,20,Analysis Start Time,,Num,
adam,adamig-1-0,Timing Variables,ASTDTM,Perm,21,Analysis Start Date/Time,,Num,
adam,adamig-1-0,Timing Variables,ASTDY,Perm,22,Analysis Start Relative Day,,Num,
adam,adamig-1-0,Timing Variables,ASTDTF,Cond,23,Analysis Start Date Imputation Flag,,Char,C81223
adam,adamig-1-0,Timing Variables,ASTTMF,Cond,24,Analysis Start Time Imputation Flag,,Char,C81226
adam,adamig-1-0,Timing Variables,AENDT,Perm,25,Analysis End Date,,Num,
adam,adamig-1-0,Timing Variables,AENTM,Perm,26,Analysis End Time,,Num,
adam,adamig-1-0,Timing Variables,AENDTM,Perm,27,Analysis End Date/Time,,Num,
adam,adamig-1-0,Timing Variables,AENDY,Perm,28,Analysis End Relative Day,,Num,
adam,adamig-1-0,Timing Variables,AENDTF,Cond,29,Analysis End Date Imputation Flag,,Char,C81223
adam,adamig-1-0,Timing Variables,AENTMF,Cond,30,Analysis End Time Imputation Flag,,Char,C81226
adam,adamig-1-0,Timing Variables,AVISIT,Cond,31,Analysis Visit,,Char,
adam,adamig-1-0,Timing Variables,AVISITN,Perm,32,Analysis Visit (N),,Num,
adam,adamig-1-0,Timing Variables,ATPT,Perm,33,Analysis Timepoint,,Char,
adam,adamig-1-0,Timing Variables,ATPTN,Perm,34,Analysis Timepoint (N),,Num,
adam,adamig-1-0,Timing Variables,ATPTREF,Perm,35,Analysis Timepoint Reference,,Char,
adam,adamig-1-0,Timing Variables,APERIOD,Perm,36,Period,,Num,
adam,adamig-1-0,Timing Variables,APERIODC,Perm,37,Period (C),,Char,
adam,adamig-1-0,Timing Variables,APHASE,Perm,38,Phase,,Char,
adam,adamig-1-0,Timing Variables,ARELTM,Perm,39,Analysis Relative Time,,Num,
adam,adamig-1-0,Timing Variables,ARELTMU,Cond,40,Analysis Relative Time Unit,,Char,
adam,adamig-1-0,Timing Variables,APERSDT,Perm,41,Period Start Date,,Num,
adam,adamig-1-0,Timing Variables,APERSTM,Perm,42,Period Start Time,,Num,
adam,adamig-1-0,Timing Variables,APERSDTM,Perm,43,Period Start Date/Time,,Num,
adam,adamig-1-0,Timing Variables,APERSDTF,Cond,44,Period Start Date Imput. Flag,,Char,C81223
adam,adamig-1-0,Timing Variables,APERSTMF,Cond,45,Period Start Time Imput. Flag,,Char,C81226
adam,adamig-1-0,Timing Variables,APEREDT,Perm,46,Period End Date,,Num,
adam,adamig-1-0,Timing Variables,APERETM,Perm,47,Period End Time,,Num,
adam,adamig-1-0,Timing Variables,APEREDTM,Perm,48,Period End Date/Time,,Num,
adam,adamig-1-0,Timing Variables,APEREDTF,Cond,49,Period End Date Imput. Flag,,Char,C81223
adam,adamig-1-0,Timing Variables,APERETMF,Cond,50,Period End Time Imput. Flag,,Char,C81226
adam,adamig-1-0,Timing Variables,*DT,Perm,51,Date of ...,,Num,
adam,adamig-1-0,Timing Variables,*TM,Perm,52,Time of ...,,Num,
adam,adamig-1-0,Timing Variables,*DTM,Perm,53,Date/Time of ...,,Num,
adam,adamig-1-0,Timing Variables,*ADY,Perm,54,Relative Day of ...,,Num,
adam,adamig-1-0,Timing Variables,*DTF,Cond,55,Date Imputation Qual of ...,,Char,C81223
adam,adamig-1-0,Timing Variables,*TMF,Cond,56,Time Imputation Flag of ...,,Char,C81226
adam,adamig-1-0,Timing Variables,*SDT,Perm,57,Start Date of ...,,Num,
adam,adamig-1-0,Timing Variables,*STM,Perm,58,Start Time of ...,,Num,
adam,adamig-1-0,Timing Variables,*SDTM,Perm,59,Start Date/Time of ...,,Num,
adam,adamig-1-0,Timing Variables,*SDY,Perm,60,Relative Start Day of ...,,Num,
adam,adamig-1-0,Timing Variables,*SDTF,Cond,61,Start Date Imputation Flag of ...,,Char,C81223
adam,adamig-1-0,Timing Variables,*STMF,Cond,62,Start Time Imputation Qual of ...,,Char,C81226
adam,adamig-1-0,Timing Variables,*EDT,Perm,63,End Date of ...,,Num,
adam,adamig-1-0,Timing Variables,*ETM,Perm,64,End Time of ...,,Num,
adam,adamig-1-0,Timing Variables,*EDTM,Perm,65,End Date/Time of ...,,Num,
adam,adamig-1-0,Timing Variables,*EDY,Perm,66,Relative End Day of ...,,Num,
adam,adamig-1-0,Timing Variables,*EDTF,Cond,67,End Date Imputation Flag of ...,,Char,C81223
adam,adamig-1-0,Timing Variables,*ETMF,Cond,68,End Time Imputation Flag of ...,,Char,C81226
adam,adamig-1-0,Analysis Parameter Variables,PARAM,Req,69,Parameter,,Char,
adam,adamig-1-0,Analysis Parameter Variables,PARAMCD,Req,70,Parameter Code,,Char,
adam,adamig-1-0,Analysis Parameter Variables,PARAMN,Perm,71,Parameter (N),,Num,
adam,adamig-1-0,Analysis Parameter Variables,PARAMTYP,Perm,72,Parameter Type,,Char,C81225
adam,adamig-1-0,Analysis Parameter Variables,PARCATy,Perm,73,Parameter Category y,,Char,
adam,adamig-1-0,Analysis Parameter Variables,PARCATyN,Perm,74,Parameter Category y (N),,Num,
adam,adamig-1-0,Analysis Parameter Variables,AVAL,Req,75,Analysis Value,,Num,
adam,adamig-1-0,Analysis Parameter Variables,AVALC,Req,76,Analysis Value (C),,Char,
adam,adamig-1-0,Analysis Parameter Variables,AVALCATy,Perm,77,Analysis Category y,,Char,
adam,adamig-1-0,Analysis Parameter Variables,BASE,Cond,78,Baseline Value,,Num,
adam,adamig-1-0,Analysis Parameter Variables,BASEC,Perm,79,Baseline Value (C),,Char,
adam,adamig-1-0,Analysis Parameter Variables,BASECATy,Perm,80,Baseline Category y,,Char,
adam,adamig-1-0,Analysis Parameter Variables,BASETYPE,Cond,81,Baseline Type,,Char,
adam,adamig-1-0,Analysis Parameter Variables,CHG,Perm,82,Change from Baseline,,Num,
adam,adamig-1-0,Analysis Parameter Variables,CHGCATy,Perm,83,Change from Baseline Category y,,Char,
adam,adamig-1-0,Analysis Parameter Variables,PCHG,Perm,84,Percent Change from Baseline,,Num,
adam,adamig-1-0,Analysis Parameter Variables,PCHGCATy,Perm,85,Percent Change from Baseline y,,Char,
adam,adamig-1-0,Analysis Parameter Variables,R2BASE,Perm,86,Ratio to Baseline,,Num,
adam,adamig-1-0,Analysis Parameter Variables,R2AyLO,Perm,87,Ratio to Analysis Range y Lower Limit,,Num,
adam,adamig-1-0,Analysis Parameter Variables,R2AyHI,Perm,88,Ratio to Analysis Range y Upper Limit,,Num,
adam,adamig-1-0,Analysis Parameter Variables,SHIFTy,Perm,89,Shift y,,Char,
adam,adamig-1-0,Analysis Parameter Variables,SHIFTyN,Perm,90,Shift y (N),,Num,
adam,adamig-1-0,Analysis Parameter Variables,CRITy,Perm,91,Analysis Criterion y,,Char,
adam,adamig-1-0,Analysis Descriptor Variables,DTYPE,Cond,92,Derivation Type,,Char,C81224
adam,adamig-1-0,Analysis Visit Windowing Variables,AWRANGE,Perm,93,Analysis Window Valid Relative Range,,Char,
adam,adamig-1-0,Analysis Visit Windowing Variables,AWTARGET,Perm,94,Analysis Window Target,,Num,
adam,adamig-1-0,Analysis Visit Windowing Variables,AWTDIFF,Perm,95,Analysis Window Diff from Target,,Num,
adam,adamig-1-0,Analysis Visit Windowing Variables,AWLO,Perm,96,Analysis Window Beginning Timepoint,,Num,
adam,adamig-1-0,Analysis Visit Windowing Variables,AWHI,Perm,97,Analysis Window Ending Timepoint,,Num,
adam,adamig-1-0,Analysis Visit Windowing Variables,AWU,Perm,98,Analysis Window Unit,,Char,
adam,adamig-1-0,Time to Event Variables,STARTDT,Perm,99,Time to Event Origin Date for Subject,,Num,
adam,adamig-1-0,Time to Event Variables,CNSR,Cond,100,Censor,,Num,
adam,adamig-1-0,Time to Event Variables,EVNTDESC,Perm,101,Event or Censoring Description,,Char,
adam,adamig-1-0,Lab Related Analysis Variables,ATOXGR,Perm,102,Analysis Toxicity Grade,,Char,
adam,adamig-1-0,Lab Related Analysis Variables,BTOXGR,Perm,103,Baseline Toxicity Grade,,Char,
adam,adamig-1-0,Lab Related Analysis Variables,ANRIND,Perm,104,Analysis Reference Range Indicator,,Char,
adam,adamig-1-0,Lab Related Analysis Variables,BNRIND,Perm,105,Baseline Reference Range Indicator,,Char,
adam,adamig-1-0,Lab Related Analysis Variables,ANRLO,Perm,106,Analysis Normal Range Lower Limit,,Char,
adam,adamig-1-0,Lab Related Analysis Variables,ANRHI,Perm,107,Analysis Normal Range Upper Limit,,Char,
adam,adamig-1-0,Lab Related Analysis Variables,AyLO,Cond,108,Analysis Range y Lower Limit,,Char,
adam,adamig-1-0,Lab Related Analysis Variables,AyHI,Cond,109,Analysis Range y Upper Limit,,Char,
adam,adamig-1-0,Flag Variables,ABLFL,Cond,110,Baseline Record Flag,,Char,
adam,adamig-1-0,Flag Variables,ABLFN,Perm,111,Baseline Record Flag (N),,Num,
adam,adamig-1-0,Flag Variables,ANLzzFL,Cond,112,Analysis Record Flag zz,,Char,
adam,adamig-1-0,Flag Variables,ANLzzFN,Perm,113,Analyzed Record Flag zz (N),,Num,
adam,adamig-1-0,Flag Variables,ONTRTFL,Perm,114,On Treatment Record Flag,,Char,
adam,adamig-1-0,Flag Variables,ONTRTFN,Perm,115,On Treatment Record Flag (N),,Num,
adam,adamig-1-0,Flag Variables,LVOTFL,Perm,116,Last Value On Treatment Record Flag,,Char,
adam,adamig-1-0,Flag Variables,LVOTFN,Perm,117,Last Value On Treatment Record Flag (N),,Num,
adam,adamig-1-0,Flag Variables,ITTRFL,Cond,118,Intent-To-Treat Record-Level Flag,,Char,
adam,adamig-1-0,Flag Variables,ITTRFN,Perm,119,Intent-To-Treat Record-Level Flag (N),,Num,
adam,adamig-1-0,Flag Variables,ITTPFL,Cond,120,Intent-To-Treat Parameter-Level Flag,,Char,
adam,adamig-1-0,Flag Variables,ITTPFN,Perm,121,Intent-To-Treat Param-Level Flag (N),,Num,
adam,adamig-1-0,Flag Variables,SAFRFL,Cond,122,Safety Analysis Record-Level Flag,,Char,
adam,adamig-1-0,Flag Variables,SAFRFN,Perm,123,Safety Analysis Record-Level Flag (N),,Num,
adam,adamig-1-0,Flag Variables,SAFPFL,Cond,124,Safety Analysis Parameter-Level Flag,,Char,
adam,adamig-1-0,Flag Variables,SAFPFN,Perm,125,Safety Analysis Param-Level Flag (N),,Num,
adam,adamig-1-0,Flag Variables,FASRFL,Cond,126,Full Analysis Set Record-Level Flag,,Char,
adam,adamig-1-0,Flag Variables,FASRFN,Perm,127,Full Analysis Set Record-Level Flag (N),,Num,
adam,adamig-1-0,Flag Variables,FASPFL,Cond,128,Full Analysis Set Parameter-Level Flag,,Char,
adam,adamig-1-0,Flag Variables,FASPFN,Perm,129,Full Analysis Set Param-Level Flag (N),,Num,
adam,adamig-1-0,Flag Variables,PPROTRFL,Cond,130,Per-Protocol Record-Level Flag,,Char,
adam,adamig-1-0,Flag Variables,PPROTRFN,Perm,131,Per-Protocol Record-Level Flag (N),,Num,
adam,adamig-1-0,Flag Variables,PPROTPFL,Cond,132,Per-Protocol Parameter-Level Flag,,Char,
adam,adamig-1-0,Flag Variables,PPROTPFN,Perm,133,Per-Protocol Parameter-Level Flag (N),,Num,
adam,adamig-1-0,Flag Variables,COMPRFL,Cond,134,Completers Record-Level Flag,,Char,
adam,adamig-1-0,Flag Variables,COMPRFN,Perm,135,Completers Record-Level Flag (N),,Num,
adam,adamig-1-0,Flag Variables,COMPPFL,Cond,136,Completers Parameter-Level Flag,,Char,
adam,adamig-1-0,Flag Variables,COMPPFN,Perm,137,Completers Parameter-Level Flag (N),,Num,
adam,adamig-1-0,Flag Variables,CRITyFL,Cond,138,Criterion y Evaluation Result Flag,,Char,
adam,adamig-1-0,Flag Variables,CRITyFN,Perm,139,Criterion y Evaluation Result Flag (N),,Num,
adam,adamig-1-0,Data Point Traceability Variables,SRCDOM,Perm,140,Source Domain,,Char,
adam,adamig-1-0,Data Point Traceability Variables,SRCVAR,Perm,141,Source Variable,,Char,
adam,adamig-1-0,Data Point Traceability Variables,SRCSEQ,Perm,142,Source Sequence Number,,Num,
adam,adamig-1-1,ADSL Identifier Variables,STUDYID,Req,1,Study Identifier,,Char,
adam,adamig-1-1,ADSL Identifier Variables,USUBJID,Req,2,Unique Subject Identifier,,Char,
adam,adamig-1-1,ADSL Identifier Variables,SUBJID,Req,3,Subject Identifier for the Study,,Char,
adam,adamig-1-1,ADSL Identifier Variables,SITEID,Req,4,Study Site Identifier,,Char,
adam,adamig-1-1,ADSL Identifier Variables,SITEGRy,Perm,5,Pooled Site Group y,,Char,
adam,adamig-1-1,ADSL Identifier Variables,SITEGRyN,Perm,6,Pooled Site Group y (N),,Num,
adam,adamig-1-1,ADSL Identifier Variables,REGIONy,Perm,7,Geographic Region y,,Char,
adam,adamig-1-1,ADSL Identifier Variables,REGIONyN,Perm,8,Geographic Region y (N),,Num,
adam,adamig-1-1,ADSL Subject Demographics Variables,AGE,Req,9,Age,,Num,
adam,adamig-1-1,ADSL Subject Demographics Variables,AGEU,Req,10,Age Units,,Char,C66781
adam,adamig-1-1,ADSL Subject Demographics Variables,AGEGRy,Perm,11,Pooled Age Group y,,Char,
adam,adamig-1-1,ADSL Subject Demographics Variables,AGEGRyN,Perm,12,Pooled Age Group y (N),,Num,
adam,adamig-1-1,ADSL Subject Demographics Variables,AAGE,Cond,13,Analysis Age,,Num,
adam,adamig-1-1,ADSL Subject Demographics Variables,SEX,Req,14,Sex,,Char,C66731
adam,adamig-1-1,ADSL Subject Demographics Variables,RACE,Req,15,Race,,Char,C74457
adam,adamig-1-1,ADSL Subject Demographics Variables,RACEGRy,Perm,16,Pooled Race Group y,,Char,
adam,adamig-1-1,ADSL Subject Demographics Variables,RACEGRyN,Perm,17,Pooled Race Group y (N),,Num,
adam,adamig-1-1,ADSL Population Indicator Variables,FASFL,Cond,18,Full Analysis Set Population Flag,,Char,
adam,adamig-1-1,ADSL Population Indicator Variables,SAFFL,Cond,19,Safety Population Flag,,Char,
adam,adamig-1-1,ADSL Population Indicator Variables,ITTFL,Cond,20,Intent-To-Treat Population Flag,,Char,
adam,adamig-1-1,ADSL Population Indicator Variables,PPROTFL,Cond,21,Per-Protocol Population Flag,,Char,
adam,adamig-1-1,ADSL Population Indicator Variables,COMPLFL,Cond,22,Completers Population Flag,,Char,
adam,adamig-1-1,ADSL Population Indicator Variables,RANDFL,Cond,23,Randomized Population Flag,,Char,
adam,adamig-1-1,ADSL Population Indicator Variables,ENRLFL,Cond,24,Enrolled Population Flag,,Char,
adam,adamig-1-1,ADSL Treatment Variables,ARM,Req,25,Description of Planned Arm,,Char,
adam,adamig-1-1,ADSL Treatment Variables,ACTARM,Perm,26,Description of Actual Arm,,Char,
adam,adamig-1-1,ADSL Treatment Variables,TRTxxP,Req,27,Planned Treatment for Period xx,,Char,
adam,adamig-1-1,ADSL Treatment Variables,TRTxxPN,Perm,28,Planned Treatment for Period xx (N),,Num,
adam,adamig-1-1,ADSL Treatment Variables,TRTxxA,Cond,29,Actual Treatment for Period xx,,Char,
adam,adamig-1-1,ADSL Treatment Variables,TRTxxAN,Perm,30,Actual Treatment for Period xx (N),,Num,
adam,adamig-1-1,ADSL Treatment Variables,TRTSEQP,Cond,31,Planned Sequence of Treatments,,Char,
adam,adamig-1-1,ADSL Treatment Variables,TRTSEQPN,Perm,32,Planned Sequence of Treatments (N),,Num,
adam,adamig-1-1,ADSL Treatment Variables,TRTSEQA,Cond,33,Actual Sequence of Treatments,,Char,
adam,adamig-1-1,ADSL Treatment Variables,TRTSEQAN,Perm,34,Actual Sequence of Treatments (N),,Num,
adam,adamig-1-1,ADSL Treatment Variables,TRxxPGy,Perm,35,Planned Pooled Treatment y for Period xx,,Char,
adam,adamig-1-1,ADSL Treatment Variables,TRxxPGyN,Perm,36,Planned Pooled Trt y for Period xx (N),,Num,
adam,adamig-1-1,ADSL Treatment Variables,TRxxAGy,Cond,37,Actual Pooled Treatment y for Period xx,,Char,
adam,adamig-1-1,ADSL Treatment Variables,TRxxAGyN,Perm,38,Actual Pooled Trt y for Period xx (N),,Num,
adam,adamig-1-1,ADSL Treatment Variables,TSEQPGy,Perm,39,Planned Pooled Treatment Sequence y,,Char,
adam,adamig-1-1,ADSL Treatment Variables,TSEQPGyN,Perm,40,Planned Pooled Treatment Sequence y (N),,Num,
adam,adamig-1-1,ADSL Treatment Variables,TSEQAGy,Cond,41,Actual Pooled Treatment Sequence y,,Char,
adam,adamig-1-1,ADSL Treatment Variables,TSEQAGyN,Perm,42,Actual Pooled Treatment Sequence y (N),,Num,
adam,adamig-1-1,ADSL Dose Variables,DOSExxP,Perm,43,Planned Treatment Dose for Period xx,,Num,
adam,adamig-1-1,ADSL Dose Variables,DOSExxA,Perm,44,Actual Treatment Dose for Period xx,,Num,
adam,adamig-1-1,ADSL Dose Variables,DOSExxU,Perm,45,Units for Dose for Period xx,,Char,
adam,adamig-1-1,ADSL Treatment Timing Variables,TRTSDT,Cond,46,Date of First Exposure to Treatment,,Num,
adam,adamig-1-1,ADSL Treatment Timing Variables,TRTSTM,Perm,47,Time of First Exposure to Treatment,,Num,
adam,adamig-1-1,ADSL Treatment Timing Variables,TRTSDTM,Cond,48,Datetime of First Exposure to Treatment,,Num,
adam,adamig-1-1,ADSL Treatment Timing Variables,TRTSDTF,Cond,49,Date of First Exposure Imput. Flag,,Char,C81223
adam,adamig-1-1,ADSL Treatment Timing Variables,TRTSTMF,Cond,50,Time of First Exposure Imput. Flag,,Char,C81226
adam,adamig-1-1,ADSL Treatment Timing Variables,TRTEDT,Cond,51,Date of Last Exposure to Treatment,,Num,
adam,adamig-1-1,ADSL Treatment Timing Variables,TRTETM,Perm,52,Time of Last Exposure to Treatment,,Num,
adam,adamig-1-1,ADSL Treatment Timing Variables,TRTEDTM,Cond,53,Datetime of Last Exposure to Treatment,,Num,
adam,adamig-1-1,ADSL Treatment Timing Variables,TRTEDTF,Cond,54,Date of Last Exposure Imput. Flag,,Char,C81223
adam,adamig-1-1,ADSL Treatment Timing Variables,TRTETMF,Cond,55,Time of Last Exposure Imput. Flag,,Char,C81226
adam,adamig-1-1,ADSL Treatment Timing Variables,TRxxSDT,Cond,56,Date of First Exposure in Period xx,,Num,
adam,adamig-1-1,ADSL Treatment Timing Variables,TRxxSTM,Cond,57,Time of First Exposure in Period xx,,Num,
adam,adamig-1-1,ADSL Treatment Timing Variables,TRxxSDTM,Cond,58,Datetime of First Exposure in Period xx,,Num,
adam,adamig-1-1,ADSL Treatment Timing Variables,TRxxSDTF,Cond,59,Date 1st Exposure Period xx Imput. Flag,,Char,C81223
adam,adamig-1-1,ADSL Treatment Timing Variables,TRxxSTMF,Cond,60,Time 1st Exposure Period xx Imput. Flag,,Char,C81226
adam,adamig-1-1,ADSL Treatment Timing Variables,TRxxEDT,Cond,61,Date of Last Exposure in Period xx,,Num,
adam,adamig-1-1,ADSL Treatment Timing Variables,TRxxETM,Cond,62,Time of Last Exposure in Period xx,,Num,
adam,adamig-1-1,ADSL Treatment Timing Variables,TRxxEDTM,Cond,63,Datetime of Last Exposure in Period xx,,Num,
adam,adamig-1-1,ADSL Treatment Timing Variables,TRxxEDTF,Cond,64,Date Last Exposure Period xx Imput. Flag,,Char,C81223
adam,adamig-1-1,ADSL Treatment Timing Variables,TRxxETMF,Cond,65,Time Last Exposure Period xx Imput. Flag,,Char,C81226
adam,adamig-1-1,"Subject-Level Period, Subperiod, and Phase Timing Variables",APxxSDT,Perm,66,Period xx Start Date,,Num,
adam,adamig-1-1,"Subject-Level Period, Subperiod, and Phase Timing Variables",APxxSTM,Perm,67,Period xx Start Time,,Num,
adam,adamig-1-1,"Subject-Level Period, Subperiod, and Phase Timing Variables",APxxSDTM,Perm,68,Period xx Start Datetime,,Num,
adam,adamig-1-1,"Subject-Level Period, Subperiod, and Phase Timing Variables",APxxSDTF,Cond,69,Period xx Start Date Imput. Flag,,Char,C81223
adam,adamig-1-1,"Subject-Level Period, Subperiod, and Phase Timing Variables",APxxSTMF,Cond,70,Period xx Start Time Imput. Flag,,Char,C81226
adam,adamig-1-1,"Subject-Level Period, Subperiod, and Phase Timing Variables",APxxEDT,Perm,71,Period xx End Date,,Num,
adam,adamig-1-1,"Subject-Level Period, Subperiod, and Phase Timing Variables",APxxETM,Perm,72,Period xx End Time,,Num,
adam,adamig-1-1,"Subject-Level Period, Subperiod, and Phase Timing Variables",APxxEDTM,Perm,73,Period xx End Datetime,,Num,
adam,adamig-1-1,"Subject-Level Period, Subperiod, and Phase Timing Variables",APxxEDTF,Cond,74,Period xx End Date Imput. Flag,,Char,C81223
adam,adamig-1-1,"Subject-Level Period, Subperiod, and Phase Timing Variables",APxxETMF,Cond,75,Period xx End Time Imput. Flag,,Char,C81226
adam,adamig-1-1,"Subject-Level Period, Subperiod, and Phase Timing Variables",PxxSw,Perm,76,Description of  Period xx Subperiod w,,Char,
adam,adamig-1-1,"Subject-Level Period, Subperiod, and Phase Timing Variables",PxxSwSDT,Perm,77,Period xx Subperiod w Start Date,,Num,
adam,adamig-1-1,"Subject-Level Period, Subperiod, and Phase Timing Variables",PxxSwSTM,Perm,78,Period xx Subperiod w Start Time,,Num,
adam,adamig-1-1,"Subject-Level Period, Subperiod, and Phase Timing Variables",PxxSwSDM,Perm,79,Period xx Subperiod w Start Datetime,,Num,
adam,adamig-1-1,"Subject-Level Period, Subperiod, and Phase Timing Variables",PxxSwSDF,Cond,80,Period xx Subper w Start Date Imput Flag,,Char,C81223
adam,adamig-1-1,"Subject-Level Period, Subperiod, and Phase Timing Variables",PxxSwSTF,Cond,81,Period xx Subper w Start Time Imput Flag,,Char,C81226
adam,adamig-1-1,"Subject-Level Period, Subperiod, and Phase Timing Variables",PxxSwEDT,Perm,82,Period xx Subperiod w End Date,,Num,
adam,adamig-1-1,"Subject-Level Period, Subperiod, and Phase Timing Variables",PxxSwETM,Perm,83,Period xx Subperiod w End Time,,Num,
adam,adamig-1-1,"Subject-Level Period, Subperiod, and Phase Timing Variables",PxxSwEDM,Perm,84,Period xx Subperiod w End Datetime,,Num,
adam,adamig-1-1,"Subject-Level Period, Subperiod, and Phase Timing Variables",PxxSwEDF,Cond,85,Period xx Subper w End Date Imput Flag,,Char,C81223
adam,adamig-1-1,"Subject-Level Period, Subperiod, and Phase Timing Variables",PxxSwETF,Cond,86,Period xx Subper w End Time Imput Flag,,Char,C81226
adam,adamig-1-1,"Subject-Level Period, Subperiod, and Phase Timing Variables",APHASEw,Perm,87,Description of Phase w,,Char,
adam,adamig-1-1,"Subject-Level Period, Subperiod, and Phase Timing Variables",PHwSDT,Perm,88,Phase w Start Date,,Num,
adam,adamig-1-1,"Subject-Level Period, Subperiod, and Phase Timing Variables",PHwSTM,Perm,89,Phase w Start Time,,Num,
adam,adamig-1-1,"Subject-Level Period, Subperiod, and Phase Timing Variables",PHwSDTM,Perm,90,Phase w Start Datetime,,Num,
adam,adamig-1-1,"Subject-Level Period, Subperiod, and Phase Timing Variables",PHwSDTF,Cond,91,Phase w Start Date Imputation Flag,,Char,C81223
adam,adamig-1-1,"Subject-Level Period, Subperiod, and Phase Timing Variables",PHwSTMF,Cond,92,Phase w Start Time Imputation Flag,,Char,C81226
adam,adamig-1-1,"Subject-Level Period, Subperiod, and Phase Timing Variables",PHwEDT,Perm,93,Phase w End Date,,Num,
adam,adamig-1-1,"Subject-Level Period, Subperiod, and Phase Timing Variables",PHwETM,Perm,94,Phase w End Time,,Num,
adam,adamig-1-1,"Subject-Level Period, Subperiod, and Phase Timing Variables",PHwEDTM,Perm,95,Phase w End Datetime,,Num,
adam,adamig-1-1,"Subject-Level Period, Subperiod, and Phase Timing Variables",PHwEDTF,Cond,96,Phase w End Date Imputation Flag,,Char,C81223
adam,adamig-1-1,"Subject-Level Period, Subperiod, and Phase Timing Variables",PHwETMF,Cond,97,Phase w End Time Imputation Flag,,Char,C81226
adam,adamig-1-1,ADSL Subject-Level Trial Experience Variables,EOSSTT,Perm,98,End of Study Status,,Char,
adam,adamig-1-1,ADSL Subject-Level Trial Experience Variables,EOSDT,Perm,99,End of Study Date,,Num,
adam,adamig-1-1,ADSL Subject-Level Trial Experience Variables,DCSREAS,Perm,100,Reason for Discontinuation from Study,,Char,
adam,adamig-1-1,ADSL Subject-Level Trial Experience Variables,DCSREASP,Perm,101,Reason Spec for Discont from Study,,Char,
adam,adamig-1-1,ADSL Subject-Level Trial Experience Variables,EOTSTT,Perm,102,End of Treatment Status,,Char,
adam,adamig-1-1,ADSL Subject-Level Trial Experience Variables,DCTREAS,Perm,103,Reason for Discontinuation of Treatment,,Char,
adam,adamig-1-1,ADSL Subject-Level Trial Experience Variables,DCTREASP,Perm,104,Reason Specify for Discont of Treatment,,Char,
adam,adamig-1-1,ADSL Subject-Level Trial Experience Variables,EOTxxSTT,Perm,105,End of Treatment Status in Period xx,,Char,
adam,adamig-1-1,ADSL Subject-Level Trial Experience Variables,DCTxxRS,Perm,106,Reason for Discont of Treat in Period xx,,Char,
adam,adamig-1-1,ADSL Subject-Level Trial Experience Variables,DCTxxRSP,Perm,107,Reason Spec for Disc of Trt in Period xx,,Char,
adam,adamig-1-1,ADSL Subject-Level Trial Experience Variables,EOPxxSTT,Perm,108,End of Period xx Status,,Char,
adam,adamig-1-1,ADSL Subject-Level Trial Experience Variables,DCPxxRS,Perm,109,Reason for Discont from Period xx,,Char,
adam,adamig-1-1,ADSL Subject-Level Trial Experience Variables,DCPxxRSP,Perm,110,Reason Spec for Discont from Period xx,,Char,
adam,adamig-1-1,ADSL Subject-Level Trial Experience Variables,RFICDT,Perm,111,Date of Informed Consent,,Num,
adam,adamig-1-1,ADSL Subject-Level Trial Experience Variables,ENRLDT,Perm,112,Date of Enrollment,,Num,
adam,adamig-1-1,ADSL Subject-Level Trial Experience Variables,RANDDT,Cond,113,Date of Randomization,,Num,
adam,adamig-1-1,ADSL Subject-Level Trial Experience Variables,RFICyDT,Perm,114,Date of Informed Consent y,,Num,
adam,adamig-1-1,ADSL Subject-Level Trial Experience Variables,ENRLyDT,Perm,115,Date of Enrollment y,,Num,
adam,adamig-1-1,ADSL Subject-Level Trial Experience Variables,RANDyDT,Perm,116,Date of Randomization y,,Num,
adam,adamig-1-1,ADSL Subject-Level Trial Experience Variables,LSTALVDT,Perm,117,Date Last Known Alive,,Num,
adam,adamig-1-1,ADSL Subject-Level Trial Experience Variables,TRCMP,Perm,118,Treatment Compliance (%),,Num,
adam,adamig-1-1,ADSL Subject-Level Trial Experience Variables,TRCMPGy,Perm,119,Treatment Compliance (%) Group y,,Char,
adam,adamig-1-1,ADSL Subject-Level Trial Experience Variables,TRCMPGyN,Perm,120,Treatment Compliance (%) Group y (N),,Num,
adam,adamig-1-1,ADSL Subject-Level Trial Experience Variables,TRxxDURD,Perm,121,Treatment Duration in Period xx (Days),,Num,
adam,adamig-1-1,ADSL Subject-Level Trial Experience Variables,TRxxDURM,Perm,122,Treatment Duration in Period xx (Months),,Num,
adam,adamig-1-1,ADSL Subject-Level Trial Experience Variables,TRxxDURY,Perm,123,Treatment Duration in Period xx (Years),,Num,
adam,adamig-1-1,ADSL Subject-Level Trial Experience Variables,TRTDURD,Perm,124,Total Treatment Duration (Days),,Num,
adam,adamig-1-1,ADSL Subject-Level Trial Experience Variables,TRTDURM,Perm,125,Total Treatment Duration (Months),,Num,
adam,adamig-1-1,ADSL Subject-Level Trial Experience Variables,TRTDURY,Perm,126,Total Treatment Duration (Years),,Num,
adam,adamig-1-1,ADSL Subject-Level Trial Experience Variables,DTHDT,Perm,127,Date of Death,,Num,
adam,adamig-1-1,ADSL Subject-Level Trial Experience Variables,DTHDTF,Cond,128,Date of Death Imputation Flag,,Char,
adam,adamig-1-1,ADSL Subject-Level Trial Experience Variables,DTHCAUS,Perm,129,Cause of Death,,Char,
adam,adamig-1-1,ADSL Subject-Level Trial Experience Variables,DTHCAUSN,Perm,130,Cause of Death (N),,Num,
adam,adamig-1-1,ADSL Subject-Level Trial Experience Variables,DTHCGRy,Perm,131,Cause of Death Group y,,Char,
adam,adamig-1-1,ADSL Subject-Level Trial Experience Variables,DTHCGRyN,Perm,132,Cause of Death Group y (N),,Num,
adam,adamig-1-1,Identifier Variables for BDS Datasets,STUDYID,Req,1,Study Identifier,,Char,
adam,adamig-1-1,Identifier Variables for BDS Datasets,USUBJID,Req,2,Unique Subject Identifier,,Char,
adam,adamig-1-1,Identifier Variables for BDS Datasets,SUBJID,Perm,3,Subject Identifier for the Study,,Char,
adam,adamig-1-1,Identifier Variables for BDS Datasets,SITEID,Perm,4,Study Site Identifier,,Char,
adam,adamig-1-1,Identifier Variables for BDS Datasets,ASEQ,Perm,5,Analysis Sequence Number,,Num,
adam,adamig-1-1,Record-Level Treatment Variables for BDS Datasets ,TRTP,Cond,6,Planned Treatment,,Char,
adam,adamig-1-1,Record-Level Treatment Variables for BDS Datasets ,TRTPN,Perm,7,Planned Treatment (N),,Num,
adam,adamig-1-1,Record-Level Treatment Variables for BDS Datasets ,TRTA,Cond,8,Actual Treatment,,Char,
adam,adamig-1-1,Record-Level Treatment Variables for BDS Datasets ,TRTAN,Perm,9,Actual Treatment (N),,Num,
adam,adamig-1-1,Record-Level Treatment Variables for BDS Datasets ,TRTPGy,Perm,10,Planned Pooled Treatment y,,Char,
adam,adamig-1-1,Record-Level Treatment Variables for BDS Datasets ,TRTPGyN,Perm,11,Planned Pooled Treatment y (N),,Num,
adam,adamig-1-1,Record-Level Treatment Variables for BDS Datasets ,TRTAGy,Cond,12,Actual Pooled Treatment y,,Char,
adam,adamig-1-1,Record-Level Treatment Variables for BDS Datasets ,TRTAGyN,Perm,13,Actual Pooled Treatment y (N),,Num,
adam,adamig-1-1,Record-Level Dose Variables for BDS Datasets,DOSEP,Perm,14,Planned Treatment Dose,,Num,
adam,adamig-1-1,Record-Level Dose Variables for BDS Datasets,DOSCUMP,Perm,15,Cumulative Planned Treatment Dose,,Num,
adam,adamig-1-1,Record-Level Dose Variables for BDS Datasets,DOSEA,Perm,16,Actual Treatment Dose,,Num,
adam,adamig-1-1,Record-Level Dose Variables for BDS Datasets,DOSCUMA,Perm,17,Cumulative Actual Treatment Dose,,Num,
adam,adamig-1-1,Record-Level Dose Variables for BDS Datasets,DOSEU,Perm,18,Treatment Dose Units,,Char,
adam,adamig-1-1,Timing Variables for BDS Datasets,ADT,Perm,19,Analysis Date,,Num,
adam,adamig-1-1,Timing Variables for BDS Datasets,ATM,Perm,20,Analysis Time,,Num,
adam,adamig-1-1,Timing Variables for BDS Datasets,ADTM,Perm,21,Analysis Datetime,,Num,
adam,adamig-1-1,Timing Variables for BDS Datasets,ADY,Perm,22,Analysis Relative Day,,Num,
adam,adamig-1-1,Timing Variables for BDS Datasets,ADTF,Cond,23,Analysis Date Imputation Flag,,Char,C81223
adam,adamig-1-1,Timing Variables for BDS Datasets,ATMF,Cond,24,Analysis Time Imputation Flag,,Char,C81226
adam,adamig-1-1,Timing Variables for BDS Datasets,ASTDT,Perm,25,Analysis Start Date,,Num,
adam,adamig-1-1,Timing Variables for BDS Datasets,ASTTM,Perm,26,Analysis Start Time,,Num,
adam,adamig-1-1,Timing Variables for BDS Datasets,ASTDTM,Perm,27,Analysis Start Datetime,,Num,
adam,adamig-1-1,Timing Variables for BDS Datasets,ASTDY,Perm,28,Analysis Start Relative Day,,Num,
adam,adamig-1-1,Timing Variables for BDS Datasets,ASTDTF,Cond,29,Analysis Start Date Imputation Flag,,Char,C81223
adam,adamig-1-1,Timing Variables for BDS Datasets,ASTTMF,Cond,30,Analysis Start Time Imputation Flag,,Char,C81226
adam,adamig-1-1,Timing Variables for BDS Datasets,AENDT,Perm,31,Analysis End Date,,Num,
adam,adamig-1-1,Timing Variables for BDS Datasets,AENTM,Perm,32,Analysis End Time,,Num,
adam,adamig-1-1,Timing Variables for BDS Datasets,AENDTM,Perm,33,Analysis End Datetime,,Num,
adam,adamig-1-1,Timing Variables for BDS Datasets,AENDY,Perm,34,Analysis End Relative Day,,Num,
adam,adamig-1-1,Timing Variables for BDS Datasets,AENDTF,Cond,35,Analysis End Date Imputation Flag,,Char,C81223
adam,adamig-1-1,Timing Variables for BDS Datasets,AENTMF,Cond,36,Analysis End Time Imputation Flag,,Char,C81226
adam,adamig-1-1,Timing Variables for BDS Datasets,AVISIT,Cond,37,Analysis Visit,,Char,
adam,adamig-1-1,Timing Variables for BDS Datasets,AVISITN,Perm,38,Analysis Visit (N),,Num,
adam,adamig-1-1,Timing Variables for BDS Datasets,ATPT,Cond,39,Analysis Timepoint,,Char,
adam,adamig-1-1,Timing Variables for BDS Datasets,ATPTN,Perm,40,Analysis Timepoint (N),,Num,
adam,adamig-1-1,Timing Variables for BDS Datasets,ATPTREF,Perm,41,Analysis Timepoint Reference,,Char,
adam,adamig-1-1,Timing Variables for BDS Datasets,APHASE,Perm,42,Phase,,Char,
adam,adamig-1-1,Timing Variables for BDS Datasets,APHASEN,Perm,43,Phase (N),,Num,
adam,adamig-1-1,Timing Variables for BDS Datasets,APERIOD,Perm,44,Period,,Num,
adam,adamig-1-1,Timing Variables for BDS Datasets,APERIODC,Perm,45,Period (C),,Char,
adam,adamig-1-1,Timing Variables for BDS Datasets,ASPER,Perm,46,Subperiod within Period,,Num,
adam,adamig-1-1,Timing Variables for BDS Datasets,ASPERC,Perm,47,Subperiod within Period (C),,Char,
adam,adamig-1-1,Timing Variables for BDS Datasets,ARELTM,Perm,48,Analysis Relative Time,,Num,
adam,adamig-1-1,Timing Variables for BDS Datasets,ARELTMU,Perm,49,Analysis Relative Time Unit,,Char,
adam,adamig-1-1,"Period, Subperiod, and Phase Start and End Timing Variables",APERSDT,Perm,50,Period Start Date,,Num,
adam,adamig-1-1,"Period, Subperiod, and Phase Start and End Timing Variables",APERSTM,Perm,51,Period Start Time,,Num,
adam,adamig-1-1,"Period, Subperiod, and Phase Start and End Timing Variables",APERSDTM,Perm,52,Period Start Datetime,,Num,
adam,adamig-1-1,"Period, Subperiod, and Phase Start and End Timing Variables",APERSDTF,Cond,53,Period Start Date Imput. Flag,,Char,C81223
adam,adamig-1-1,"Period, Subperiod, and Phase Start and End Timing Variables",APERSTMF,Cond,54,Period Start Time Imput. Flag,,Char,C81226
adam,adamig-1-1,"Period, Subperiod, and Phase Start and End Timing Variables",APEREDT,Perm,55,Period End Date,,Num,
adam,adamig-1-1,"Period, Subperiod, and Phase Start and End Timing Variables",APERETM,Perm,56,Period End Time,,Num,
adam,adamig-1-1,"Period, Subperiod, and Phase Start and End Timing Variables",APEREDTM,Perm,57,Period End Datetime,,Num,
adam,adamig-1-1,"Period, Subperiod, and Phase Start and End Timing Variables",APEREDTF,Cond,58,Period End Date Imput. Flag,,Char,C81223
adam,adamig-1-1,"Period, Subperiod, and Phase Start and End Timing Variables",APERETMF,Cond,59,Period End Time Imput. Flag,,Char,C81226
adam,adamig-1-1,"Period, Subperiod, and Phase Start and End Timing Variables",ASPRSDT,Perm,60,Subperiod Start Date,,Num,
adam,adamig-1-1,"Period, Subperiod, and Phase Start and End Timing Variables",ASPRSTM,Perm,61,Subperiod Start Time,,Num,
adam,adamig-1-1,"Period, Subperiod, and Phase Start and End Timing Variables",ASPRSDTM,Perm,62,Subperiod Start Datetime,,Num,
adam,adamig-1-1,"Period, Subperiod, and Phase Start and End Timing Variables",ASPRSDTF,Cond,63,Subperiod Start Date Imput. Flag,,Char,C81223
adam,adamig-1-1,"Period, Subperiod, and Phase Start and End Timing Variables",ASPRSTMF,Cond,64,Subperiod Start Time Imput. Flag,,Char,C81226
adam,adamig-1-1,"Period, Subperiod, and Phase Start and End Timing Variables",ASPREDT,Perm,65,Subperiod End Date,,Num,
adam,adamig-1-1,"Period, Subperiod, and Phase Start and End Timing Variables",ASPRETM,Perm,66,Subperiod End Time,,Num,
adam,adamig-1-1,"Period, Subperiod, and Phase Start and End Timing Variables",ASPREDTM,Perm,67,Subperiod End Datetime,,Num,
adam,adamig-1-1,"Period, Subperiod, and Phase Start and End Timing Variables",ASPREDTF,Cond,68,Subperiod End Date Imput. Flag,,Char,C81223
adam,adamig-1-1,"Period, Subperiod, and Phase Start and End Timing Variables",ASPRETMF,Cond,69,Subperiod End Time Imput. Flag,,Char,C81226
adam,adamig-1-1,"Period, Subperiod, and Phase Start and End Timing Variables",PHSDT,Perm,70,Phase Start Date,,Num,
adam,adamig-1-1,"Period, Subperiod, and Phase Start and End Timing Variables",PHSTM,Perm,71,Phase Start Time,,Num,
adam,adamig-1-1,"Period, Subperiod, and Phase Start and End Timing Variables",PHSDTM,Perm,72,Phase Start Datetime,,Num,
adam,adamig-1-1,"Period, Subperiod, and Phase Start and End Timing Variables",PHSDTF,Cond,73,Phase Start Date Imput. Flag,,Char,C81223
adam,adamig-1-1,"Period, Subperiod, and Phase Start and End Timing Variables",PHSTMF,Cond,74,Phase Start Time Imput. Flag,,Char,C81226
adam,adamig-1-1,"Period, Subperiod, and Phase Start and End Timing Variables",PHEDT,Perm,75,Phase End Date,,Num,
adam,adamig-1-1,"Period, Subperiod, and Phase Start and End Timing Variables",PHETM,Perm,76,Phase End Time,,Num,
adam,adamig-1-1,"Period, Subperiod, and Phase Start and End Timing Variables",PHEDTM,Perm,77,Phase End Datetime,,Num,
adam,adamig-1-1,"Period, Subperiod, and Phase Start and End Timing Variables",PHEDTF,Cond,78,Phase End Date Imput. Flag,,Char,C81223
adam,adamig-1-1,"Period, Subperiod, and Phase Start and End Timing Variables",PHETMF,Cond,79,Phase End Time Imput. Flag,,Char,C81226
adam,adamig-1-1,Suffixes for User-Defined Timing Variables in BDS Datasets,*DT,Perm,80,{Date},,Num,
adam,adamig-1-1,Suffixes for User-Defined Timing Variables in BDS Datasets,*TM,Perm,81,{Time},,Num,
adam,adamig-1-1,Suffixes for User-Defined Timing Variables in BDS Datasets,*DTM,Perm,82,{Datetime},,Num,
adam,adamig-1-1,Suffixes for User-Defined Timing Variables in BDS Datasets,*ADY,Perm,83,{Relative Day},,Num,
adam,adamig-1-1,Suffixes for User-Defined Timing Variables in BDS Datasets,*DTF,Cond,84,{Date Imputation Flag},,Char,C81223
adam,adamig-1-1,Suffixes for User-Defined Timing Variables in BDS Datasets,*TMF,Cond,85,{Time Imputation Flag},,Char,C81226
adam,adamig-1-1,Suffixes for User-Defined Timing Variables in BDS Datasets,*SDT,Perm,86,{Start Date},,Num,
adam,adamig-1-1,Suffixes for User-Defined Timing Variables in BDS Datasets,*STM,Perm,87,{Start Time},,Num,
adam,adamig-1-1,Suffixes for User-Defined Timing Variables in BDS Datasets,*SDTM,Perm,88,{Start Datetime},,Num,
adam,adamig-1-1,Suffixes for User-Defined Timing Variables in BDS Datasets,*SDY,Perm,89,{Relative Start Day},,Num,
adam,adamig-1-1,Suffixes for User-Defined Timing Variables in BDS Datasets,*SDTF,Cond,90,{Start Date Imputation Flag},,Char,C81223
adam,adamig-1-1,Suffixes for User-Defined Timing Variables in BDS Datasets,*STMF,Cond,91,{Start Time Imputation Flag},,Char,C81226
adam,adamig-1-1,Suffixes for User-Defined Timing Variables in BDS Datasets,*EDT,Perm,92,{End Date},,Num,
adam,adamig-1-1,Suffixes for User-Defined Timing Variables in BDS Datasets,*ETM,Perm,93,{End Time},,Num,
adam,adamig-1-1,Suffixes for User-Defined Timing Variables in BDS Datasets,*EDTM,Perm,94,{End Datetime},,Num,
adam,adamig-1-1,Suffixes for User-Defined Timing Variables in BDS Datasets,*EDY,Perm,95,{Relative End Day},,Num,
adam,adamig-1-1,Suffixes for User-Defined Timing Variables in BDS Datasets,*EDTF,Cond,96,{End Date Imputation Flag},,Char,C81223
adam,adamig-1-1,Suffixes for User-Defined Timing Variables in BDS Datasets,*ETMF,Cond,97,{End Time Imputation Flag},,Char,C81226
adam,adamig-1-1,Analysis Parameter Variables for BDS Datasets,PARAM,Req,98,Parameter,,Char,
adam,adamig-1-1,Analysis Parameter Variables for BDS Datasets,PARAMCD,Req,99,Parameter Code,,Char,
adam,adamig-1-1,Analysis Parameter Variables for BDS Datasets,PARAMN,Perm,100,Parameter (N),,Num,
adam,adamig-1-1,Analysis Parameter Variables for BDS Datasets,PARAMTYP,Perm,101,Parameter Type,,Char,C81225
adam,adamig-1-1,Analysis Parameter Variables for BDS Datasets,PARCATy,Perm,102,Parameter Category y,,Char,
adam,adamig-1-1,Analysis Parameter Variables for BDS Datasets,PARCATyN,Perm,103,Parameter Category y (N),,Num,
adam,adamig-1-1,Analysis Parameter Variables for BDS Datasets,AVAL,Cond,104,Analysis Value,,Num,
adam,adamig-1-1,Analysis Parameter Variables for BDS Datasets,AVALC,Cond,105,Analysis Value (C),,Char,
adam,adamig-1-1,Analysis Parameter Variables for BDS Datasets,AVALCATy,Perm,106,Analysis Value Category y,,Char,
adam,adamig-1-1,Analysis Parameter Variables for BDS Datasets,AVALCAyN,Perm,107,Analysis Value Category y (N),,Num,
adam,adamig-1-1,Analysis Parameter Variables for BDS Datasets,BASE,Cond,108,Baseline Value,,Num,
adam,adamig-1-1,Analysis Parameter Variables for BDS Datasets,BASEC,Perm,109,Baseline Value (C),,Char,
adam,adamig-1-1,Analysis Parameter Variables for BDS Datasets,BASECATy,Perm,110,Baseline Category y,,Char,
adam,adamig-1-1,Analysis Parameter Variables for BDS Datasets,BASECAyN,Perm,111,Baseline Category y (N),,Num,
adam,adamig-1-1,Analysis Parameter Variables for BDS Datasets,BASETYPE,Cond,112,Baseline Type,,Char,
adam,adamig-1-1,Analysis Parameter Variables for BDS Datasets,CHG,Perm,113,Change from Baseline,,Num,
adam,adamig-1-1,Analysis Parameter Variables for BDS Datasets,CHGCATy,Perm,114,Change from Baseline Category y,,Char,
adam,adamig-1-1,Analysis Parameter Variables for BDS Datasets,CHGCATyN,Perm,115,Change from Baseline Category y (N),,Num,
adam,adamig-1-1,Analysis Parameter Variables for BDS Datasets,PCHG,Perm,116,Percent Change from Baseline,,Num,
adam,adamig-1-1,Analysis Parameter Variables for BDS Datasets,PCHGCATy,Perm,117,Percent Chg from Baseline Category y,,Char,
adam,adamig-1-1,Analysis Parameter Variables for BDS Datasets,PCHGCAyN,Perm,118,Percent Chg from Baseline Category y (N),,Num,
adam,adamig-1-1,Analysis Parameter Variables for BDS Datasets,R2BASE,Perm,119,Ratio to Baseline,,Num,
adam,adamig-1-1,Analysis Parameter Variables for BDS Datasets,R2AyLO,Perm,120,Ratio to Analysis Range y Lower Limit,,Num,
adam,adamig-1-1,Analysis Parameter Variables for BDS Datasets,R2AyHI,Perm,121,Ratio to Analysis Range y Upper Limit,,Num,
adam,adamig-1-1,Analysis Parameter Variables for BDS Datasets,SHIFTy,Perm,122,Shift y,,Char,
adam,adamig-1-1,Analysis Parameter Variables for BDS Datasets,SHIFTyN,Perm,123,Shift y (N),,Num,
adam,adamig-1-1,Analysis Parameter Criteria Variables for BDS Datasets,CRITy,Perm,124,Analysis Criterion y,,Char,
adam,adamig-1-1,Analysis Parameter Criteria Variables for BDS Datasets,CRITyFL,Cond,125,Criterion y Evaluation Result Flag,,Char,
adam,adamig-1-1,Analysis Parameter Criteria Variables for BDS Datasets,CRITyFN,Perm,126,Criterion y Evaluation Result Flag (N),,Num,
adam,adamig-1-1,Analysis Parameter Criteria Variables for BDS Datasets,MCRITy,Perm,127,Analysis Multi-Response Criterion y,,Char,
adam,adamig-1-1,Analysis Parameter Criteria Variables for BDS Datasets,MCRITyML,Cond,128,Multi-Response Criterion y Evaluation,,Char,
adam,adamig-1-1,Analysis Parameter Criteria Variables for BDS Datasets,MCRITyMN,Perm,129,Multi-Response Criterion y Eval (N),,Num,
adam,adamig-1-1,Analysis Descriptor Variables for BDS Datasets,DTYPE,Cond,130,Derivation Type,,Char,C81224
adam,adamig-1-1,Analysis Visit Windowing Variables for BDS Datasets,AWRANGE,Perm,131,Analysis Window Valid Relative Range,,Char,
adam,adamig-1-1,Analysis Visit Windowing Variables for BDS Datasets,AWTARGET,Perm,132,Analysis Window Target,,Num,
adam,adamig-1-1,Analysis Visit Windowing Variables for BDS Datasets,AWTDIFF,Perm,133,Analysis Window Diff from Target,,Num,
adam,adamig-1-1,Analysis Visit Windowing Variables for BDS Datasets,AWLO,Perm,134,Analysis Window Beginning Timepoint,,Num,
adam,adamig-1-1,Analysis Visit Windowing Variables for BDS Datasets,AWHI,Perm,135,Analysis Window Ending Timepoint,,Num,
adam,adamig-1-1,Analysis Visit Windowing Variables for BDS Datasets,AWU,Perm,136,Analysis Window Unit,,Char,
adam,adamig-1-1,Time-to-Event Variables for BDS Datasets,STARTDT,Perm,137,Time-to-Event Origin Date for Subject,,Num,
adam,adamig-1-1,Time-to-Event Variables for BDS Datasets,STARTDTM,Perm,138,Time-to-Event Origin Datetime,,Num,
adam,adamig-1-1,Time-to-Event Variables for BDS Datasets,STARTDTF,Cond,139,Origin Date Imputation Flag,,Char,C81223
adam,adamig-1-1,Time-to-Event Variables for BDS Datasets,STARTTMF,Cond,140,Origin Time Imputation Flag,,Char,C81226
adam,adamig-1-1,Time-to-Event Variables for BDS Datasets,CNSR,Cond,141,Censor,,Num,
adam,adamig-1-1,Time-to-Event Variables for BDS Datasets,EVNTDESC,Perm,142,Event or Censoring Description,,Char,
adam,adamig-1-1,Time-to-Event Variables for BDS Datasets,CNSDTDSC,Perm,143,Censor Date Description,,Char,
adam,adamig-1-1,Toxicity and Range Variables for BDS Datasets,ATOXGR,Perm,144,Analysis Toxicity Grade,,Char,
adam,adamig-1-1,Toxicity and Range Variables for BDS Datasets,BTOXGR,Perm,145,Baseline Toxicity Grade,,Char,
adam,adamig-1-1,Toxicity and Range Variables for BDS Datasets,ANRIND,Perm,146,Analysis Reference Range Indicator,,Char,
adam,adamig-1-1,Toxicity and Range Variables for BDS Datasets,BNRIND,Perm,147,Baseline Reference Range Indicator,,Char,
adam,adamig-1-1,Toxicity and Range Variables for BDS Datasets,ANRLO,Perm,148,Analysis Normal Range Lower Limit,,Num,
adam,adamig-1-1,Toxicity and Range Variables for BDS Datasets,ANRLOC,Perm,149,Analysis Normal Range Lower Limit (C),,Char,
adam,adamig-1-1,Toxicity and Range Variables for BDS Datasets,ANRHI,Perm,150,Analysis Normal Range Upper Limit,,Num,
adam,adamig-1-1,Toxicity and Range Variables for BDS Datasets,ANRHIC,Perm,151,Analysis Normal Range Upper Limit (C),,Char,
adam,adamig-1-1,Toxicity and Range Variables for BDS Datasets,AyLO,Cond,152,Analysis Range y Lower Limit,,Num,
adam,adamig-1-1,Toxicity and Range Variables for BDS Datasets,AyLOC,Perm,153,Analysis Range y Lower Limit (C),,Char,
adam,adamig-1-1,Toxicity and Range Variables for BDS Datasets,AyHI,Cond,154,Analysis Range y Upper Limit,,Num,
adam,adamig-1-1,Toxicity and Range Variables for BDS Datasets,AyHIC,Perm,155,Analysis Range y Upper Limit (C),,Char,
adam,adamig-1-1,Toxicity and Range Variables for BDS Datasets,AyIND,Perm,156,Analysis Range y Indicator,,Char,
adam,adamig-1-1,Toxicity and Range Variables for BDS Datasets,ByIND,Perm,157,Baseline Analysis Range y Indicator,,Char,
adam,adamig-1-1,Flag Variables for BDS Datasets,ABLFL,Cond,158,Baseline Record Flag,,Char,
adam,adamig-1-1,Flag Variables for BDS Datasets,ABLFN,Perm,159,Baseline Record Flag (N),,Num,
adam,adamig-1-1,Flag Variables for BDS Datasets,ANLzzFL,Cond,160,Analysis Flag zz,,Char,
adam,adamig-1-1,Flag Variables for BDS Datasets,ANLzzFN,Perm,161,Analysis Flag zz (N),,Num,
adam,adamig-1-1,Flag Variables for BDS Datasets,ONTRTFL,Perm,162,On Treatment Record Flag,,Char,
adam,adamig-1-1,Flag Variables for BDS Datasets,ONTRTFN,Perm,163,On Treatment Record Flag (N),,Num,
adam,adamig-1-1,Flag Variables for BDS Datasets,LVOTFL,Perm,164,Last Value On Treatment Record Flag,,Char,
adam,adamig-1-1,Flag Variables for BDS Datasets,LVOTFN,Perm,165,Last Value On Treatment Record Flag (N),,Num,
adam,adamig-1-1,BDS Population Indicators,ITTRFL,Perm,166,Intent-To-Treat Record-Level Flag,,Char,
adam,adamig-1-1,BDS Population Indicators,SAFRFL,Perm,167,Safety Analysis Record-Level Flag,,Char,
adam,adamig-1-1,BDS Population Indicators,FASRFL,Perm,168,Full Analysis Set Record-Level Flag,,Char,
adam,adamig-1-1,BDS Population Indicators,PPROTRFL,Perm,169,Per-Protocol Record-Level Flag,,Char,
adam,adamig-1-1,BDS Population Indicators,COMPLRFL,Perm,170,Completers Record-Level Flag,,Char,
adam,adamig-1-1,BDS Population Indicators,ITTPFL,Perm,171,Intent-To-Treat Parameter-Level Flag,,Char,
adam,adamig-1-1,BDS Population Indicators,SAFPFL,Perm,172,Safety Analysis Parameter-Level Flag,,Char,
adam,adamig-1-1,BDS Population Indicators,FASPFL,Perm,173,Full Analysis Set Parameter-Level Flag,,Char,
adam,adamig-1-1,BDS Population Indicators,PPROTPFL,Perm,174,Per-Protocol Parameter-Level Flag,,Char,
adam,adamig-1-1,BDS Population Indicators,COMPLPFL,Perm,175,Completers Parameter-Level Flag,,Char,
adam,adamig-1-1,Datapoint Traceability Variables,SRCDOM,Perm,176,Source Data,,Char,
adam,adamig-1-1,Datapoint Traceability Variables,SRCVAR,Perm,177,Source Variable,,Char,
adam,adamig-1-1,Datapoint Traceability Variables,SRCSEQ,Perm,178,Source Sequence Number,,Num,
adam,adamig-1-2,Identifier,STUDYID,Req,142,Study Identifier,,Char,
adam,adamig-1-2,Identifier,USUBJID,Req,143,Unique Subject Identifier,,Char,
adam,adamig-1-2,Identifier,SUBJID,Perm,144,Subject Identifier for the Study,,Char,
adam,adamig-1-2,Identifier,SITEID,Perm,145,Study Site Identifier,,Char,
adam,adamig-1-2,Identifier,SITEGRy,Perm,5,Pooled Site Group y,,Char,
adam,adamig-1-2,Identifier,SITEGRyN,Perm,6,Pooled Site Group y (N),,Num,
adam,adamig-1-2,Identifier,REGIONy,Perm,7,Geographic Region y,,Char,
adam,adamig-1-2,Identifier,REGIONyN,Perm,8,Geographic Region y (N),,Num,
adam,adamig-1-2,Identifier,ASEQ,Perm,146,Analysis Sequence Number,,Num,
adam,adamig-1-2,SubjectDemographics,AGE,Req,9,Age,,Num,
adam,adamig-1-2,SubjectDemographics,AGEU,Req,10,Age Units,,Char,C66781
adam,adamig-1-2,SubjectDemographics,AGEGRy,Perm,11,Pooled Age Group y,,Char,
adam,adamig-1-2,SubjectDemographics,AGEGRyN,Perm,12,Pooled Age Group y (N),,Num,
adam,adamig-1-2,SubjectDemographics,AAGE,Cond,13,Analysis Age,,Num,
adam,adamig-1-2,SubjectDemographics,SEX,Req,14,Sex,,Char,C66731
adam,adamig-1-2,SubjectDemographics,RACE,Req,15,Race,,Char,C74457
adam,adamig-1-2,SubjectDemographics,RACEGRy,Perm,16,Pooled Race Group y,,Char,
adam,adamig-1-2,SubjectDemographics,RACEGRyN,Perm,17,Pooled Race Group y (N),,Num,
adam,adamig-1-2,Treatment,ARM,Req,18,Description of Planned Arm,,Char,
adam,adamig-1-2,Treatment,ACTARM,Perm,19,Description of Actual Arm,,Char,
adam,adamig-1-2,Treatment,TRTxxP,Req,20,Planned Treatment for Period xx,,Char,
adam,adamig-1-2,Treatment,TRTxxPN,Perm,21,Planned Treatment for Period xx (N),,Num,
adam,adamig-1-2,Treatment,TRTxxA,Cond,22,Actual Treatment for Period xx,,Char,
adam,adamig-1-2,Treatment,TRTxxAN,Perm,23,Actual Treatment for Period xx (N),,Num,
adam,adamig-1-2,Treatment,TRTSEQP,Cond,24,Planned Sequence of Treatments,,Char,
adam,adamig-1-2,Treatment,TRTSEQPN,Perm,25,Planned Sequence of Treatments (N),,Num,
adam,adamig-1-2,Treatment,TRTSEQA,Cond,26,Actual Sequence of Treatments,,Char,
adam,adamig-1-2,Treatment,TRTSEQAN,Perm,27,Actual Sequence of Treatments (N),,Num,
adam,adamig-1-2,Treatment,TRxxPGy,Perm,28,Planned Pooled Treatment y for Period xx,,Char,
adam,adamig-1-2,Treatment,TRxxPGyN,Perm,29,Planned Pooled Trt y for Period xx (N),,Num,
adam,adamig-1-2,Treatment,TRxxAGy,Cond,30,Actual Pooled Treatment y for Period xx,,Char,
adam,adamig-1-2,Treatment,TRxxAGyN,Perm,31,Actual Pooled Trt y for Period xx (N),,Num,
adam,adamig-1-2,Treatment,TSEQPGy,Perm,32,Planned Pooled Treatment Sequence y,,Char,
adam,adamig-1-2,Treatment,TSEQPGyN,Perm,33,Planned Pooled Treatment Sequence y (N),,Num,
adam,adamig-1-2,Treatment,TSEQAGy,Cond,34,Actual Pooled Treatment Sequence y,,Char,
adam,adamig-1-2,Treatment,TSEQAGyN,Perm,35,Actual Pooled Treatment Sequence y (N),,Num,
adam,adamig-1-2,Dose,DOSExxP,Perm,36,Planned Treatment Dose for Period xx,,Num,
adam,adamig-1-2,Dose,DOSExxA,Perm,37,Actual Treatment Dose for Period xx,,Num,
adam,adamig-1-2,Dose,DOSExxU,Perm,38,Units for Dose for Period xx,,Char,
adam,adamig-1-2,TreatmentTiming,TRTSDT,Cond,39,Date of First Exposure to Treatment,,Num,
adam,adamig-1-2,TreatmentTiming,TRTSTM,Perm,40,Time of First Exposure to Treatment,,Num,
adam,adamig-1-2,TreatmentTiming,TRTSDTM,Cond,41,Datetime of First Exposure to Treatment,,Num,
adam,adamig-1-2,TreatmentTiming,TRTSDTF,Cond,42,Date of First Exposure Imput. Flag,,Char,C81223
adam,adamig-1-2,TreatmentTiming,TRTSTMF,Cond,43,Time of First Exposure Imput. Flag,,Char,C81226
adam,adamig-1-2,TreatmentTiming,TRTEDT,Cond,44,Date of Last Exposure to Treatment,,Num,
adam,adamig-1-2,TreatmentTiming,TRTETM,Perm,45,Time of Last Exposure to Treatment,,Num,
adam,adamig-1-2,TreatmentTiming,TRTEDTM,Cond,46,Datetime of Last Exposure to Treatment,,Num,
adam,adamig-1-2,TreatmentTiming,TRTEDTF,Cond,47,Date of Last Exposure Imput. Flag,,Char,C81223
adam,adamig-1-2,TreatmentTiming,TRTETMF,Cond,48,Time of Last Exposure Imput. Flag,,Char,C81226
adam,adamig-1-2,TreatmentTiming,TRxxSDT,Cond,49,Date of First Exposure in Period xx,,Num,
adam,adamig-1-2,TreatmentTiming,TRxxSTM,Cond,50,Time of First Exposure in Period xx,,Num,
adam,adamig-1-2,TreatmentTiming,TRxxSDTM,Cond,51,Datetime of First Exposure in Period xx,,Num,
adam,adamig-1-2,TreatmentTiming,TRxxSDTF,Cond,52,Date 1st Exposure Period xx Imput. Flag,,Char,C81223
adam,adamig-1-2,TreatmentTiming,TRxxSTMF,Cond,53,Time 1st Exposure Period xx Imput. Flag,,Char,C81226
adam,adamig-1-2,TreatmentTiming,TRxxEDT,Cond,54,Date of Last Exposure in Period xx,,Num,
adam,adamig-1-2,TreatmentTiming,TRxxETM,Cond,55,Time of Last Exposure in Period xx,,Num,
adam,adamig-1-2,TreatmentTiming,TRxxEDTM,Cond,56,Datetime of Last Exposure in Period xx,,Num,
adam,adamig-1-2,TreatmentTiming,TRxxEDTF,Cond,57,Date Last Exposure Period xx Imput. Flag,,Char,C81223
adam,adamig-1-2,TreatmentTiming,TRxxETMF,Cond,58,Time Last Exposure Period xx Imput. Flag,,Char,C81226
adam,adamig-1-2,PeriodSubperiodPhaseTiming,APxxSDT,Perm,59,Period xx Start Date,,Num,
adam,adamig-1-2,PeriodSubperiodPhaseTiming,APxxSTM,Perm,60,Period xx Start Time,,Num,
adam,adamig-1-2,PeriodSubperiodPhaseTiming,APxxSDTM,Perm,61,Period xx Start Datetime,,Num,
adam,adamig-1-2,PeriodSubperiodPhaseTiming,APxxSDTF,Cond,62,Period xx Start Date Imput. Flag,,Char,C81223
adam,adamig-1-2,PeriodSubperiodPhaseTiming,APxxSTMF,Cond,63,Period xx Start Time Imput. Flag,,Char,C81226
adam,adamig-1-2,PeriodSubperiodPhaseTiming,APxxEDT,Perm,64,Period xx End Date,,Num,
adam,adamig-1-2,PeriodSubperiodPhaseTiming,APxxETM,Perm,65,Period xx End Time,,Num,
adam,adamig-1-2,PeriodSubperiodPhaseTiming,APxxEDTM,Perm,66,Period xx End Datetime,,Num,
adam,adamig-1-2,PeriodSubperiodPhaseTiming,APxxEDTF,Cond,67,Period xx End Date Imput. Flag,,Char,C81223
adam,adamig-1-2,PeriodSubperiodPhaseTiming,APxxETMF,Cond,68,Period xx End Time Imput. Flag,,Char,C81226
adam,adamig-1-2,PeriodSubperiodPhaseTiming,PxxSw,Perm,69,Description of Period xx Subperiod w,,Char,
adam,adamig-1-2,PeriodSubperiodPhaseTiming,PxxSwSDT,Perm,70,Period xx Subperiod w Start Date,,Num,
adam,adamig-1-2,PeriodSubperiodPhaseTiming,PxxSwSTM,Perm,71,Period xx Subperiod w Start Time,,Num,
adam,adamig-1-2,PeriodSubperiodPhaseTiming,PxxSwSDM,Perm,72,Period xx Subperiod w Start Datetime,,Num,
adam,adamig-1-2,PeriodSubperiodPhaseTiming,PxxSwSDF,Cond,73,Period xx Subper w Start Date Imput Flag,,Char,C81223
adam,adamig-1-2,PeriodSubperiodPhaseTiming,PxxSwSTF,Cond,74,Period xx Subper w Start Time Imput Flag,,Char,C81226
adam,adamig-1-2,PeriodSubperiodPhaseTiming,PxxSwEDT,Perm,75,Period xx Subperiod w End Date,,Num,
adam,adamig-1-2,PeriodSubperiodPhaseTiming,PxxSwETM,Perm,76,Period xx Subperiod w End Time,,Num,
adam,adamig-1-2,PeriodSubperiodPhaseTiming,PxxSwEDM,Perm,77,Period xx Subperiod w End Datetime,,Num,
adam,adamig-1-2,PeriodSubperiodPhaseTiming,PxxSwEDF,Cond,78,Period xx Subper w End Date Imput Flag,,Char,C81223
adam,adamig-1-2,PeriodSubperiodPhaseTiming,PxxSwETF,Cond,79,Period xx Subper w End Time Imput Flag,,Char,C81226
adam,adamig-1-2,PeriodSubperiodPhaseTiming,APHASEw,Perm,80,Description of Phase w,,Char,
adam,adamig-1-2,PeriodSubperiodPhaseTiming,PHwSDT,Perm,81,Phase w Start Date,,Num,
adam,adamig-1-2,PeriodSubperiodPhaseTiming,PHwSTM,Perm,82,Phase w Start Time,,Num,
adam,adamig-1-2,PeriodSubperiodPhaseTiming,PHwSDTM,Perm,83,Phase w Start Datetime,,Num,
adam,adamig-1-2,PeriodSubperiodPhaseTiming,PHwSDTF,Cond,84,Phase w Start Date Imputation Flag,,Char,C81223
adam,adamig-1-2,PeriodSubperiodPhaseTiming,PHwSTMF,Cond,85,Phase w Start Time Imputation Flag,,Char,C81226
adam,adamig-1-2,PeriodSubperiodPhaseTiming,PHwEDT,Perm,86,Phase w End Date,,Num,
adam,adamig-1-2,PeriodSubperiodPhaseTiming,PHwETM,Perm,87,Phase w End Time,,Num,
adam,adamig-1-2,PeriodSubperiodPhaseTiming,PHwEDTM,Perm,88,Phase w End Datetime,,Num,
adam,adamig-1-2,PeriodSubperiodPhaseTiming,PHwEDTF,Cond,89,Phase w End Date Imputation Flag,,Char,C81223
adam,adamig-1-2,PeriodSubperiodPhaseTiming,PHwETMF,Cond,90,Phase w End Time Imputation Flag,,Char,C81226
adam,adamig-1-2,TrialExperience,EOSSTT,Perm,91,End of Study Status,,Char,C124296
adam,adamig-1-2,TrialExperience,EOSDT,Perm,92,End of Study Date,,Num,
adam,adamig-1-2,TrialExperience,DCSREAS,Perm,93,Reason for Discontinuation from Study,,Char,
adam,adamig-1-2,TrialExperience,DCSREASP,Perm,94,Reason Spec for Discont from Study,,Char,
adam,adamig-1-2,TrialExperience,EOTSTT,Perm,95,End of Treatment Status,,Char,C124296
adam,adamig-1-2,TrialExperience,DCTREAS,Perm,96,Reason for Discontinuation of Treatment,,Char,
adam,adamig-1-2,TrialExperience,DCTREASP,Perm,97,Reason Specify for Discont of Treatment,,Char,
adam,adamig-1-2,TrialExperience,EOTxxSTT,Perm,98,End of Treatment Status in Period xx,,Char,C124296
adam,adamig-1-2,TrialExperience,DCTxxRS,Perm,99,Reason for Discont of Treat in Period xx,,Char,
adam,adamig-1-2,TrialExperience,DCTxxRSP,Perm,100,Reason Spec for Disc of Trt in Period xx,,Char,
adam,adamig-1-2,TrialExperience,EOPxxSTT,Perm,101,End of Period xx Status,,Char,C124296
adam,adamig-1-2,TrialExperience,DCPxxRS,Perm,102,Reason for Discont from Period xx,,Char,
adam,adamig-1-2,TrialExperience,DCPxxRSP,Perm,103,Reason Spec for Discont from Period xx,,Char,
adam,adamig-1-2,TrialExperience,RFICDT,Perm,104,Date of Informed Consent,,Num,
adam,adamig-1-2,TrialExperience,ENRLDT,Perm,105,Date of Enrollment,,Num,
adam,adamig-1-2,TrialExperience,RANDDT,Cond,106,Date of Randomization,,Num,
adam,adamig-1-2,TrialExperience,RFICyDT,Perm,107,Date of Informed Consent y,,Num,
adam,adamig-1-2,TrialExperience,ENRLyDT,Perm,108,Date of Enrollment y,,Num,
adam,adamig-1-2,TrialExperience,RANDyDT,Perm,109,Date of Randomization y,,Num,
adam,adamig-1-2,TrialExperience,LSTALVDT,Perm,110,Date Last Known Alive,,Num,
adam,adamig-1-2,TrialExperience,TRCMP,Perm,111,Treatment Compliance (%),,Num,
adam,adamig-1-2,TrialExperience,TRCMPGy,Perm,112,Treatment Compliance (%) Group y,,Char,
adam,adamig-1-2,TrialExperience,TRCMPGyN,Perm,113,Treatment Compliance (%) Group y (N),,Num,
adam,adamig-1-2,TrialExperience,TRxxDURD,Perm,114,Treatment Duration in Period xx (Days),,Num,
adam,adamig-1-2,TrialExperience,TRxxDURM,Perm,115,Treatment Duration in Period xx (Months),,Num,
adam,adamig-1-2,TrialExperience,TRxxDURY,Perm,116,Treatment Duration in Period xx (Years),,Num,
adam,adamig-1-2,TrialExperience,TRTDURD,Perm,117,Total Treatment Duration (Days),,Num,
adam,adamig-1-2,TrialExperience,TRTDURM,Perm,118,Total Treatment Duration (Months),,Num,
adam,adamig-1-2,TrialExperience,TRTDURY,Perm,119,Total Treatment Duration (Years),,Num,
adam,adamig-1-2,TrialExperience,DTHDT,Perm,120,Date of Death,,Num,
adam,adamig-1-2,TrialExperience,DTHDTF,Cond,121,Date of Death Imputation Flag,,Char,C81223
adam,adamig-1-2,TrialExperience,DTHCAUS,Perm,122,Cause of Death,,Char,
adam,adamig-1-2,TrialExperience,DTHCAUSN,Perm,123,Cause of Death (N),,Num,
adam,adamig-1-2,TrialExperience,DTHCGRy,Perm,124,Cause of Death Group y,,Char,
adam,adamig-1-2,TrialExperience,DTHCGRyN,Perm,125,Cause of Death Group y (N),,Num,
adam,adamig-1-2,Stratification,STRATAR,Perm,126,Strata Used for Randomization,,Char,
adam,adamig-1-2,Stratification,STRATARN,Perm,127,Strata Used for Randomization (N),,Num,
adam,adamig-1-2,Stratification,STRATwD,Perm,128,Description of Stratification Factor w,,Char,
adam,adamig-1-2,Stratification,STRATwR,Perm,129,Strat Factor w Value Used for Rand,,Char,
adam,adamig-1-2,Stratification,STRATwRN,Perm,130,Strat Factor w Value Used for Rand (N),,Num,
adam,adamig-1-2,Stratification,STRATAV,Perm,131,Strata from Verification Source,,Char,
adam,adamig-1-2,Stratification,STRATAVN,Perm,132,Strata from Verification Source (N),,Num,
adam,adamig-1-2,Stratification,STRATwV,Perm,133,Strat Factor w Value from Verif Source,,Char,
adam,adamig-1-2,Stratification,STRATwVN,Perm,134,Strat Fact w Val from Verif Source (N),,Num,
adam,adamig-1-2,PopulationIndicator,FASFL,Cond,135,Full Analysis Set Population Flag,,Char,
adam,adamig-1-2,PopulationIndicator,SAFFL,Cond,136,Safety Population Flag,,Char,
adam,adamig-1-2,PopulationIndicator,ITTFL,Cond,137,Intent-To-Treat Population Flag,,Char,
adam,adamig-1-2,PopulationIndicator,PPROTFL,Cond,138,Per-Protocol Population Flag,,Char,
adam,adamig-1-2,PopulationIndicator,COMPLFL,Cond,139,Completers Population Flag,,Char,
adam,adamig-1-2,PopulationIndicator,RANDFL,Cond,140,Randomized Population Flag,,Char,
adam,adamig-1-2,PopulationIndicator,ENRLFL,Cond,141,Enrolled Population Flag,,Char,
adam,adamig-1-2,PopulationIndicator,ITTRFL,Perm,327,Intent-To-Treat Record-Level Flag,,Char,
adam,adamig-1-2,PopulationIndicator,SAFRFL,Perm,328,Safety Analysis Record-Level Flag,,Char,
adam,adamig-1-2,PopulationIndicator,FASRFL,Perm,329,Full Analysis Set Record-Level Flag,,Char,
adam,adamig-1-2,PopulationIndicator,PPROTRFL,Perm,330,Per-Protocol Record-Level Flag,,Char,
adam,adamig-1-2,PopulationIndicator,COMPLRFL,Perm,331,Completers Record-Level Flag,,Char,
adam,adamig-1-2,PopulationIndicator,ITTPFL,Perm,332,Intent-To-Treat Parameter-Level Flag,,Char,
adam,adamig-1-2,PopulationIndicator,SAFPFL,Perm,333,Safety Analysis Parameter-Level Flag,,Char,
adam,adamig-1-2,PopulationIndicator,FASPFL,Perm,334,Full Analysis Set Parameter-Level Flag,,Char,
adam,adamig-1-2,PopulationIndicator,PPROTPFL,Perm,335,Per-Protocol Parameter-Level Flag,,Char,
adam,adamig-1-2,PopulationIndicator,COMPLPFL,Perm,336,Completers Parameter-Level Flag,,Char,
adam,adamig-1-2,RecordLevelTreatmentDose,TRTP,Cond,147,Planned Treatment,,Char,
adam,adamig-1-2,RecordLevelTreatmentDose,TRTPN,Perm,148,Planned Treatment (N),,Num,
adam,adamig-1-2,RecordLevelTreatmentDose,TRTA,Cond,149,Actual Treatment,,Char,
adam,adamig-1-2,RecordLevelTreatmentDose,TRTAN,Perm,150,Actual Treatment (N),,Num,
adam,adamig-1-2,RecordLevelTreatmentDose,TRTPGy,Perm,151,Planned Pooled Treatment y,,Char,
adam,adamig-1-2,RecordLevelTreatmentDose,TRTPGyN,Perm,152,Planned Pooled Treatment y (N),,Num,
adam,adamig-1-2,RecordLevelTreatmentDose,TRTAGy,Cond,153,Actual Pooled Treatment y,,Char,
adam,adamig-1-2,RecordLevelTreatmentDose,TRTAGyN,Perm,154,Actual Pooled Treatment y (N),,Num,
adam,adamig-1-2,RecordLevelDose,DOSEP,Perm,155,Planned Treatment Dose,,Num,
adam,adamig-1-2,RecordLevelDose,DOSCUMP,Perm,156,Cumulative Planned Treatment Dose,,Num,
adam,adamig-1-2,RecordLevelDose,DOSEA,Perm,157,Actual Treatment Dose,,Num,
adam,adamig-1-2,RecordLevelDose,DOSCUMA,Perm,158,Cumulative Actual Treatment Dose,,Num,
adam,adamig-1-2,RecordLevelDose,DOSEU,Perm,159,Treatment Dose Units,,Char,
adam,adamig-1-2,Timing,ADT,Perm,160,Analysis Date,,Num,
adam,adamig-1-2,Timing,ATM,Perm,161,Analysis Time,,Num,
adam,adamig-1-2,Timing,ADTM,Perm,162,Analysis Datetime,,Num,
adam,adamig-1-2,Timing,ADY,Perm,163,Analysis Relative Day,,Num,
adam,adamig-1-2,Timing,ADTF,Cond,164,Analysis Date Imputation Flag,,Char,C81223
adam,adamig-1-2,Timing,ATMF,Cond,165,Analysis Time Imputation Flag,,Char,C81226
adam,adamig-1-2,Timing,ASTDT,Perm,166,Analysis Start Date,,Num,
adam,adamig-1-2,Timing,ASTTM,Perm,167,Analysis Start Time,,Num,
adam,adamig-1-2,Timing,ASTDTM,Perm,168,Analysis Start Datetime,,Num,
adam,adamig-1-2,Timing,ASTDY,Perm,169,Analysis Start Relative Day,,Num,
adam,adamig-1-2,Timing,ASTDTF,Cond,170,Analysis Start Date Imputation Flag,,Char,C81223
adam,adamig-1-2,Timing,ASTTMF,Cond,171,Analysis Start Time Imputation Flag,,Char,C81226
adam,adamig-1-2,Timing,AENDT,Perm,172,Analysis End Date,,Num,
adam,adamig-1-2,Timing,AENTM,Perm,173,Analysis End Time,,Num,
adam,adamig-1-2,Timing,AENDTM,Perm,174,Analysis End Datetime,,Num,
adam,adamig-1-2,Timing,AENDY,Perm,175,Analysis End Relative Day,,Num,
adam,adamig-1-2,Timing,AENDTF,Cond,176,Analysis End Date Imputation Flag,,Char,C81223
adam,adamig-1-2,Timing,AENTMF,Cond,177,Analysis End Time Imputation Flag,,Char,C81226
adam,adamig-1-2,Timing,AVISIT,Cond,178,Analysis Visit,,Char,
adam,adamig-1-2,Timing,AVISITN,Perm,179,Analysis Visit (N),,Num,
adam,adamig-1-2,Timing,ATPT,Cond,180,Analysis Timepoint,,Char,
adam,adamig-1-2,Timing,ATPTN,Perm,181,Analysis Timepoint (N),,Num,
adam,adamig-1-2,Timing,ATPTREF,Perm,182,Analysis Timepoint Reference,,Char,
adam,adamig-1-2,Timing,APHASE,Perm,183,Phase,,Char,
adam,adamig-1-2,Timing,APHASEN,Perm,184,Phase (N),,Num,
adam,adamig-1-2,Timing,APERIOD,Cond,185,Period,,Num,
adam,adamig-1-2,Timing,APERIODC,Perm,186,Period (C),,Char,
adam,adamig-1-2,Timing,ASPER,Perm,187,Subperiod within Period,,Num,
adam,adamig-1-2,Timing,ASPERC,Perm,188,Subperiod within Period (C),,Char,
adam,adamig-1-2,Timing,ARELTM,Perm,189,Analysis Relative Time,,Num,
adam,adamig-1-2,Timing,ARELTMU,Perm,190,Analysis Relative Time Unit,,Char,
adam,adamig-1-2,PeriodSubperiodPhaseStartEndTiming,APERSDT,Perm,191,Period Start Date,,Num,
adam,adamig-1-2,PeriodSubperiodPhaseStartEndTiming,APERSTM,Perm,192,Period Start Time,,Num,
adam,adamig-1-2,PeriodSubperiodPhaseStartEndTiming,APERSDTM,Perm,193,Period Start Datetime,,Num,
adam,adamig-1-2,PeriodSubperiodPhaseStartEndTiming,APERSDTF,Cond,194,Period Start Date Imput. Flag,,Char,C81223
adam,adamig-1-2,PeriodSubperiodPhaseStartEndTiming,APERSTMF,Cond,195,Period Start Time Imput. Flag,,Char,C81226
adam,adamig-1-2,PeriodSubperiodPhaseStartEndTiming,APEREDT,Perm,196,Period End Date,,Num,
adam,adamig-1-2,PeriodSubperiodPhaseStartEndTiming,APERETM,Perm,197,Period End Time,,Num,
adam,adamig-1-2,PeriodSubperiodPhaseStartEndTiming,APEREDTM,Perm,198,Period End Datetime,,Num,
adam,adamig-1-2,PeriodSubperiodPhaseStartEndTiming,APEREDTF,Cond,199,Period End Date Imput. Flag,,Char,C81223
adam,adamig-1-2,PeriodSubperiodPhaseStartEndTiming,APERETMF,Cond,200,Period End Time Imput. Flag,,Char,C81226
adam,adamig-1-2,PeriodSubperiodPhaseStartEndTiming,ASPRSDT,Perm,201,Subperiod Start Date,,Num,
adam,adamig-1-2,PeriodSubperiodPhaseStartEndTiming,ASPRSTM,Perm,202,Subperiod Start Time,,Num,
adam,adamig-1-2,PeriodSubperiodPhaseStartEndTiming,ASPRSDTM,Perm,203,Subperiod Start Datetime,,Num,
adam,adamig-1-2,PeriodSubperiodPhaseStartEndTiming,ASPRSDTF,Cond,204,Subperiod Start Date Imput. Flag,,Char,C81223
adam,adamig-1-2,PeriodSubperiodPhaseStartEndTiming,ASPRSTMF,Cond,205,Subperiod Start Time Imput. Flag,,Char,C81226
adam,adamig-1-2,PeriodSubperiodPhaseStartEndTiming,ASPREDT,Perm,206,Subperiod End Date,,Num,
adam,adamig-1-2,PeriodSubperiodPhaseStartEndTiming,ASPRETM,Perm,207,Subperiod End Time,,Num,
adam,adamig-1-2,PeriodSubperiodPhaseStartEndTiming,ASPREDTM,Perm,208,Subperiod End Datetime,,Num,
adam,adamig-1-2,PeriodSubperiodPhaseStartEndTiming,ASPREDTF,Cond,209,Subperiod End Date Imput. Flag,,Char,C81223
adam,adamig-1-2,PeriodSubperiodPhaseStartEndTiming,ASPRETMF,Cond,210,Subperiod End Time Imput. Flag,,Char,C81226
adam,adamig-1-2,PeriodSubperiodPhaseStartEndTiming,PHSDT,Perm,211,Phase Start Date,,Num,
adam,adamig-1-2,PeriodSubperiodPhaseStartEndTiming,PHSTM,Perm,212,Phase Start Time,,Num,
adam,adamig-1-2,PeriodSubperiodPhaseStartEndTiming,PHSDTM,Perm,213,Phase Start Datetime,,Num,
adam,adamig-1-2,PeriodSubperiodPhaseStartEndTiming,PHSDTF,Cond,214,Phase Start Date Imput. Flag,,Char,C81223
adam,adamig-1-2,PeriodSubperiodPhaseStartEndTiming,PHSTMF,Cond,215,Phase Start Time Imput. Flag,,Char,C81226
adam,adamig-1-2,PeriodSubperiodPhaseStartEndTiming,PHEDT,Perm,216,Phase End Date,,Num,
adam,adamig-1-2,PeriodSubperiodPhaseStartEndTiming,PHETM,Perm,217,Phase End Time,,Num,
adam,adamig-1-2,PeriodSubperiodPhaseStartEndTiming,PHEDTM,Perm,218,Phase End Datetime,,Num,
adam,adamig-1-2,PeriodSubperiodPhaseStartEndTiming,PHEDTF,Cond,219,Phase End Date Imput. Flag,,Char,C81223
adam,adamig-1-2,PeriodSubperiodPhaseStartEndTiming,PHETMF,Cond,220,Phase End Time Imput. Flag,,Char,C81226
adam,adamig-1-2,SuffixesforUserDefinedTiming,*DT,Perm,221,{Date},,Num,
adam,adamig-1-2,SuffixesforUserDefinedTiming,*TM,Perm,222,{Time},,Num,
adam,adamig-1-2,SuffixesforUserDefinedTiming,*DTM,Perm,223,{Datetime},,Num,
adam,adamig-1-2,SuffixesforUserDefinedTiming,*ADY,Perm,224,{Relative Day},,Num,
adam,adamig-1-2,SuffixesforUserDefinedTiming,*DTF,Cond,225,{Date Imputation Flag},,Char,C81223
adam,adamig-1-2,SuffixesforUserDefinedTiming,*TMF,Cond,226,{Time Imputation Flag},,Char,C81226
adam,adamig-1-2,SuffixesforUserDefinedTiming,*SDT,Perm,227,{Start Date},,Num,
adam,adamig-1-2,SuffixesforUserDefinedTiming,*STM,Perm,228,{Start Time},,Num,
adam,adamig-1-2,SuffixesforUserDefinedTiming,*SDTM,Perm,229,{Start Datetime},,Num,
adam,adamig-1-2,SuffixesforUserDefinedTiming,*SDY,Perm,230,{Relative Start Day},,Num,
adam,adamig-1-2,SuffixesforUserDefinedTiming,*SDTF,Cond,231,{Start Date Imputation Flag},,Char,C81223
adam,adamig-1-2,SuffixesforUserDefinedTiming,*STMF,Cond,232,{Start Time Imputation Flag},,Char,C81226
adam,adamig-1-2,SuffixesforUserDefinedTiming,*EDT,Perm,233,{End Date},,Num,
adam,adamig-1-2,SuffixesforUserDefinedTiming,*ETM,Perm,234,{End Time},,Num,
adam,adamig-1-2,SuffixesforUserDefinedTiming,*EDTM,Perm,235,{End Datetime},,Num,
adam,adamig-1-2,SuffixesforUserDefinedTiming,*EDY,Perm,236,{Relative End Day},,Num,
adam,adamig-1-2,SuffixesforUserDefinedTiming,*EDTF,Cond,237,{End Date Imputation Flag},,Char,C81223
adam,adamig-1-2,SuffixesforUserDefinedTiming,*ETMF,Cond,238,{End Time Imputation Flag},,Char,C81226
adam,adamig-1-2,AnalysisParameter,PARAM,Req,239,Parameter,,Char,
adam,adamig-1-2,AnalysisParameter,PARAMCD,Req,240,Parameter Code,,Char,
adam,adamig-1-2,AnalysisParameter,PARAMN,Perm,241,Parameter (N),,Num,
adam,adamig-1-2,AnalysisParameter,PARCATy,Perm,242,Parameter Category y,,Char,
adam,adamig-1-2,AnalysisParameter,PARCATyN,Perm,243,Parameter Category y (N),,Num,
adam,adamig-1-2,AnalysisParameter,AVAL,Cond,244,Analysis Value,,Num,
adam,adamig-1-2,AnalysisParameter,AVALC,Cond,245,Analysis Value (C),,Char,
adam,adamig-1-2,AnalysisParameter,AVALCATy,Perm,246,Analysis Value Category y,,Char,
adam,adamig-1-2,AnalysisParameter,AVALCAyN,Perm,247,Analysis Value Category y (N),,Num,
adam,adamig-1-2,AnalysisParameter,BASE,Cond,248,Baseline Value,,Num,
adam,adamig-1-2,AnalysisParameter,BASEC,Perm,249,Baseline Value (C),,Char,
adam,adamig-1-2,AnalysisParameter,BASECATy,Perm,250,Baseline Category y,,Char,
adam,adamig-1-2,AnalysisParameter,BASECAyN,Perm,251,Baseline Category y (N),,Num,
adam,adamig-1-2,AnalysisParameter,BASETYPE,Cond,252,Baseline Type,,Char,
adam,adamig-1-2,AnalysisParameter,CHG,Perm,253,Change from Baseline,,Num,
adam,adamig-1-2,AnalysisParameter,CHGCATy,Perm,254,Change from Baseline Category y,,Char,
adam,adamig-1-2,AnalysisParameter,CHGCATyN,Perm,255,Change from Baseline Category y (N),,Num,
adam,adamig-1-2,AnalysisParameter,PCHG,Perm,256,Percent Change from Baseline,,Num,
adam,adamig-1-2,AnalysisParameter,PCHGCATy,Perm,257,Percent Chg from Baseline Category y,,Char,
adam,adamig-1-2,AnalysisParameter,PCHGCAyN,Perm,258,Percent Chg from Baseline Category y (N),,Num,
adam,adamig-1-2,AnalysisParameter,R2BASE,Perm,259,Ratio to Baseline,,Num,
adam,adamig-1-2,AnalysisParameter,R2AyLO,Perm,260,Ratio to Analysis Range y Lower Limit,,Num,
adam,adamig-1-2,AnalysisParameter,R2AyHI,Perm,261,Ratio to Analysis Range y Upper Limit,,Num,
adam,adamig-1-2,AnalysisParameter,SHIFTy,Perm,262,Shift y,,Char,
adam,adamig-1-2,AnalysisParameter,SHIFTyN,Perm,263,Shift y (N),,Num,
adam,adamig-1-2,AnalysisParameter,BCHG,Perm,264,Change to Baseline,,Num,
adam,adamig-1-2,AnalysisParameter,BCHGCATy,Perm,265,Change to Baseline Category y,,Char,
adam,adamig-1-2,AnalysisParameter,BCHGCAyN,Perm,266,Change to Baseline Category y (N),,Num,
adam,adamig-1-2,AnalysisParameter,PBCHG,Perm,267,Percent Change to Baseline,,Num,
adam,adamig-1-2,AnalysisParameter,PBCHGCAy,Perm,268,Percent Change to Baseline Category y,,Char,
adam,adamig-1-2,AnalysisParameter,PBCHGCyN,Perm,269,Percent Change to Baseline Category y (N),,Num,
adam,adamig-1-2,AnalysisParameterCriteria,CRITy,Perm,270,Analysis Criterion y,,Char,
adam,adamig-1-2,AnalysisParameterCriteria,CRITyFL,Cond,271,Criterion y Evaluation Result Flag,,Char,
adam,adamig-1-2,AnalysisParameterCriteria,CRITyFN,Perm,272,Criterion y Evaluation Result Flag (N),,Num,
adam,adamig-1-2,AnalysisParameterCriteria,MCRITy,Perm,273,Analysis Multi-Response Criterion y,,Char,
adam,adamig-1-2,AnalysisParameterCriteria,MCRITyML,Cond,274,Multi-Response Criterion y Evaluation,,Char,
adam,adamig-1-2,AnalysisParameterCriteria,MCRITyMN,Perm,275,Multi-Response Criterion y Eval (N),,Num,
adam,adamig-1-2,AnalysisDescriptor,DTYPE,Cond,276,Derivation Type,,Char,C81224
adam,adamig-1-2,AnalysisVisitWindowing,AWRANGE,Perm,277,Analysis Window Valid Relative Range,,Char,
adam,adamig-1-2,AnalysisVisitWindowing,AWTARGET,Perm,278,Analysis Window Target,,Num,
adam,adamig-1-2,AnalysisVisitWindowing,AWTDIFF,Perm,279,Analysis Window Diff from Target,,Num,
adam,adamig-1-2,AnalysisVisitWindowing,AWLO,Perm,280,Analysis Window Beginning Timepoint,,Num,
adam,adamig-1-2,AnalysisVisitWindowing,AWHI,Perm,281,Analysis Window Ending Timepoint,,Num,
adam,adamig-1-2,AnalysisVisitWindowing,AWU,Perm,282,Analysis Window Unit,,Char,
adam,adamig-1-2,TimetoEvent,STARTDT,Perm,283,Time-to-Event Origin Date for Subject,,Num,
adam,adamig-1-2,TimetoEvent,STARTDTM,Perm,284,Time-to-Event Origin Datetime,,Num,
adam,adamig-1-2,TimetoEvent,STARTDTF,Cond,285,Origin Date Imputation Flag,,Char,C81223
adam,adamig-1-2,TimetoEvent,STARTTMF,Cond,286,Origin Time Imputation Flag,,Char,C81226
adam,adamig-1-2,TimetoEvent,CNSR,Cond,287,Censor,,Num,
adam,adamig-1-2,TimetoEvent,EVNTDESC,Perm,288,Event or Censoring Description,,Char,
adam,adamig-1-2,TimetoEvent,CNSDTDSC,Perm,289,Censor Date Description,,Char,
adam,adamig-1-2,ToxicityRange,ATOXGR,Perm,290,Analysis Toxicity Grade,,Char,
adam,adamig-1-2,ToxicityRange,ATOXGRN,Perm,291,Analysis Toxicity Grade (N),,Num,
adam,adamig-1-2,ToxicityRange,BTOXGR,Perm,292,Baseline Toxicity Grade,,Char,
adam,adamig-1-2,ToxicityRange,BTOXGRN,Perm,293,Baseline Toxicity Grade (N),,Num,
adam,adamig-1-2,ToxicityRange,ANRIND,Perm,294,Analysis Reference Range Indicator,,Char,
adam,adamig-1-2,ToxicityRange,BNRIND,Perm,295,Baseline Reference Range Indicator,,Char,
adam,adamig-1-2,ToxicityRange,ANRLO,Perm,296,Analysis Normal Range Lower Limit,,Num,
adam,adamig-1-2,ToxicityRange,ANRLOC,Perm,297,Analysis Normal Range Lower Limit (C),,Char,
adam,adamig-1-2,ToxicityRange,ANRHI,Perm,298,Analysis Normal Range Upper Limit,,Num,
adam,adamig-1-2,ToxicityRange,ANRHIC,Perm,299,Analysis Normal Range Upper Limit (C),,Char,
adam,adamig-1-2,ToxicityRange,AyLO,Cond,300,Analysis Range y Lower Limit,,Num,
adam,adamig-1-2,ToxicityRange,AyLOC,Perm,301,Analysis Range y Lower Limit (C),,Char,
adam,adamig-1-2,ToxicityRange,AyHI,Cond,302,Analysis Range y Upper Limit,,Num,
adam,adamig-1-2,ToxicityRange,AyHIC,Perm,303,Analysis Range y Upper Limit (C),,Char,
adam,adamig-1-2,ToxicityRange,AyIND,Perm,304,Analysis Range y Indicator,,Char,
adam,adamig-1-2,ToxicityRange,ByIND,Perm,305,Baseline Analysis Range y Indicator,,Char,
adam,adamig-1-2,ToxicityRange,ATOXGRL,Perm,306,Analysis Toxicity Grade Low,,Char,
adam,adamig-1-2,ToxicityRange,ATOXGRLN,Perm,307,Analysis Toxicity Grade Low (N),,Num,
adam,adamig-1-2,ToxicityRange,ATOXGRH,Perm,308,Analysis Toxicity Grade High,,Char,
adam,adamig-1-2,ToxicityRange,ATOXGRHN,Perm,309,Analysis Toxicity Grade High (N),,Num,
adam,adamig-1-2,ToxicityRange,BTOXGRL,Perm,310,Baseline Toxicity Grade Low,,Char,
adam,adamig-1-2,ToxicityRange,BTOXGRLN,Perm,311,Baseline Toxicity Grade Low (N),,Num,
adam,adamig-1-2,ToxicityRange,BTOXGRH,Perm,312,Baseline Toxicity Grade High,,Char,
adam,adamig-1-2,ToxicityRange,BTOXGRHN,Perm,313,Baseline Toxicity Grade High (N),,Num,
adam,adamig-1-2,ToxicityRange,ATOXDSCL,Perm,314,Analysis Toxicity Description Low,,Char,
adam,adamig-1-2,ToxicityRange,ATOXDSCH,Perm,315,Analysis Toxicity Description High,,Char,
adam,adamig-1-2,Flag,ABLFL,Cond,316,Baseline Record Flag,,Char,
adam,adamig-1-2,Flag,ABLFN,Perm,317,Baseline Record Flag (N),,Num,
adam,adamig-1-2,Flag,ANLzzFL,Cond,318,Analysis Flag zz,,Char,
adam,adamig-1-2,Flag,ANLzzFN,Perm,319,Analysis Flag zz (N),,Num,
adam,adamig-1-2,Flag,ONTRTFL,Perm,320,On Treatment Record Flag,,Char,
adam,adamig-1-2,Flag,ONTRTFN,Perm,321,On Treatment Record Flag (N),,Num,
adam,adamig-1-2,Flag,LVOTFL,Perm,322,Last Value On Treatment Record Flag,,Char,
adam,adamig-1-2,Flag,LVOTFN,Perm,323,Last Value On Treatment Record Flag (N),,Num,
adam,adamig-1-2,DatapointTraceability,SRCDOM,Perm,324,Source Data,,Char,
adam,adamig-1-2,DatapointTraceability,SRCVAR,Perm,325,Source Variable,,Char,
adam,adamig-1-2,DatapointTraceability,SRCSEQ,Perm,326,Source Sequence Number,,Num,
adam,adamig-1-3,Identifier,STUDYID,Req,1,Study Identifier,,Char,
adam,adamig-1-3,Identifier,USUBJID,Req,2,Unique Subject Identifier,,Char,
adam,adamig-1-3,Identifier,SUBJID,Perm,3,Subject Identifier for the Study,,Char,
adam,adamig-1-3,Identifier,SITEID,Perm,4,Study Site Identifier,,Char,
adam,adamig-1-3,Identifier,SITEGRy,Perm,5,Pooled Site Group y,,Char,
adam,adamig-1-3,Identifier,SITEGRyN,Perm,6,Pooled Site Group y (N),,Num,
adam,adamig-1-3,Identifier,REGIONy,Perm,7,Geographic Region y,,Char,
adam,adamig-1-3,Identifier,REGIONyN,Perm,8,Geographic Region y (N),,Num,
adam,adamig-1-3,Identifier,ASEQ,Perm,5,Analysis Sequence Number,,Num,
adam,adamig-1-3,Subject Demographics,AGE,Req,1,Age,,Num,
adam,adamig-1-3,Subject Demographics,AGEU,Req,2,Age Units,,Char,C66781
adam,adamig-1-3,Subject Demographics,AGEGRy,Perm,3,Pooled Age Group y,,Char,
adam,adamig-1-3,Subject Demographics,AGEGRyN,Perm,4,Pooled Age Group y (N),,Num,
adam,adamig-1-3,Subject Demographics,AAGE,Cond,5,Analysis Age,,Num,
adam,adamig-1-3,Subject Demographics,SEX,Req,6,Sex,,Char,C66731
adam,adamig-1-3,Subject Demographics,RACE,Req,7,Race,,Char,C74457
adam,adamig-1-3,Subject Demographics,RACEGRy,Perm,8,Pooled Race Group y,,Char,
adam,adamig-1-3,Subject Demographics,RACEGRyN,Perm,9,Pooled Race Group y (N),,Num,
adam,adamig-1-3,Population Indicator,FASFL,Cond,1,Full Analysis Set Population Flag,,Char,
adam,adamig-1-3,Population Indicator,SAFFL,Cond,2,Safety Population Flag,,Char,
adam,adamig-1-3,Population Indicator,ITTFL,Cond,3,Intent-To-Treat Population Flag,,Char,
adam,adamig-1-3,Population Indicator,PPROTFL,Cond,4,Per-Protocol Population Flag,,Char,
adam,adamig-1-3,Population Indicator,COMPLFL,Cond,5,Completers Population Flag,,Char,
adam,adamig-1-3,Population Indicator,RANDFL,Cond,6,Randomized Population Flag,,Char,
adam,adamig-1-3,Population Indicator,ENRLFL,Cond,7,Enrolled Population Flag,,Char,
adam,adamig-1-3,Treatment,ARM,Req,1,Description of Planned Arm,,Char,
adam,adamig-1-3,Treatment,ACTARM,Perm,2,Description of Actual Arm,,Char,
adam,adamig-1-3,Treatment,TRTxxP,Req,3,Planned Treatment for Period xx,,Char,
adam,adamig-1-3,Treatment,TRTxxPN,Perm,4,Planned Treatment for Period xx (N),,Num,
adam,adamig-1-3,Treatment,TRTxxA,Cond,5,Actual Treatment for Period xx,,Char,
adam,adamig-1-3,Treatment,TRTxxAN,Perm,6,Actual Treatment for Period xx (N),,Num,
adam,adamig-1-3,Treatment,TRTSEQP,Cond,7,Planned Sequence of Treatments,,Char,
adam,adamig-1-3,Treatment,TRTSEQPN,Perm,8,Planned Sequence of Treatments (N),,Num,
adam,adamig-1-3,Treatment,TRTSEQA,Cond,9,Actual Sequence of Treatments,,Char,
adam,adamig-1-3,Treatment,TRTSEQAN,Perm,10,Actual Sequence of Treatments (N),,Num,
adam,adamig-1-3,Treatment,TRxxPGy,Perm,11,Planned Pooled Treatment y for Period xx,,Char,
adam,adamig-1-3,Treatment,TRxxPGyN,Perm,12,Planned Pooled Trt y for Period xx (N),,Num,
adam,adamig-1-3,Treatment,TRxxAGy,Cond,13,Actual Pooled Treatment y for Period xx,,Char,
adam,adamig-1-3,Treatment,TRxxAGyN,Perm,14,Actual Pooled Trt y for Period xx (N),,Num,
adam,adamig-1-3,Treatment,TSEQPGy,Perm,15,Planned Pooled Treatment Sequence y,,Char,
adam,adamig-1-3,Treatment,TSEQPGyN,Perm,16,Planned Pooled Treatment Sequence y (N),,Num,
adam,adamig-1-3,Treatment,TSEQAGy,Cond,17,Actual Pooled Treatment Sequence y,,Char,
adam,adamig-1-3,Treatment,TSEQAGyN,Perm,18,Actual Pooled Treatment Sequence y (N),,Num,
adam,adamig-1-3,Dose,DOSExxP,Perm,1,Planned Treatment Dose for Period xx,,Num,
adam,adamig-1-3,Dose,DOSExxA,Perm,2,Actual Treatment Dose for Period xx,,Num,
adam,adamig-1-3,Dose,DOSExxU,Perm,3,Units for Dose for Period xx,,Char,
adam,adamig-1-3,Treatment Timing,TRTSDT,Cond,1,Date of First Exposure to Treatment,,Num,
adam,adamig-1-3,Treatment Timing,TRTSTM,Perm,2,Time of First Exposure to Treatment,,Num,
adam,adamig-1-3,Treatment Timing,TRTSDTM,Cond,3,Datetime of First Exposure to Treatment,,Num,
adam,adamig-1-3,Treatment Timing,TRTSDTF,Cond,4,Date of First Exposure Imput. Flag,,Char,C81223
adam,adamig-1-3,Treatment Timing,TRTSTMF,Cond,5,Time of First Exposure Imput. Flag,,Char,C81226
adam,adamig-1-3,Treatment Timing,TRTEDT,Cond,6,Date of Last Exposure to Treatment,,Num,
adam,adamig-1-3,Treatment Timing,TRTETM,Perm,7,Time of Last Exposure to Treatment,,Num,
adam,adamig-1-3,Treatment Timing,TRTEDTM,Cond,8,Datetime of Last Exposure to Treatment,,Num,
adam,adamig-1-3,Treatment Timing,TRTEDTF,Cond,9,Date of Last Exposure Imput. Flag,,Char,C81223
adam,adamig-1-3,Treatment Timing,TRTETMF,Cond,10,Time of Last Exposure Imput. Flag,,Char,C81226
adam,adamig-1-3,Treatment Timing,TRxxSDT,Cond,11,Date of First Exposure in Period xx,,Num,
adam,adamig-1-3,Treatment Timing,TRxxSTM,Cond,12,Time of First Exposure in Period xx,,Num,
adam,adamig-1-3,Treatment Timing,TRxxSDTM,Cond,13,Datetime of First Exposure in Period xx,,Num,
adam,adamig-1-3,Treatment Timing,TRxxSDTF,Cond,14,Date 1st Exposure Period xx Imput. Flag,,Char,C81223
adam,adamig-1-3,Treatment Timing,TRxxSTMF,Cond,15,Time 1st Exposure Period xx Imput. Flag,,Char,C81226
adam,adamig-1-3,Treatment Timing,TRxxEDT,Cond,16,Date of Last Exposure in Period xx,,Num,
adam,adamig-1-3,Treatment Timing,TRxxETM,Cond,17,Time of Last Exposure in Period xx,,Num,
adam,adamig-1-3,Treatment Timing,TRxxEDTM,Cond,18,Datetime of Last Exposure in Period xx,,Num,
adam,adamig-1-3,Treatment Timing,TRxxEDTF,Cond,19,Date Last Exposure Period xx Imput. Flag,,Char,C81223
adam,adamig-1-3,Treatment Timing,TRxxETMF,Cond,20,Time Last Exposure Period xx Imput. Flag,,Char,C81226
adam,adamig-1-3,"Period, Subperiod, and Phase Timing",APxxSDT,Perm,1,Period xx Start Date,,Num,
adam,adamig-1-3,"Period, Subperiod, and Phase Timing",APxxSTM,Perm,2,Period xx Start Time,,Num,
adam,adamig-1-3,"Period, Subperiod, and Phase Timing",APxxSDTM,Perm,3,Period xx Start Datetime,,Num,
adam,adamig-1-3,"Period, Subperiod, and Phase Timing",APxxSDTF,Cond,4,Period xx Start Date Imput. Flag,,Char,C81223
adam,adamig-1-3,"Period, Subperiod, and Phase Timing",APxxSTMF,Cond,5,Period xx Start Time Imput. Flag,,Char,C81226
adam,adamig-1-3,"Period, Subperiod, and Phase Timing",APxxEDT,Perm,6,Period xx End Date,,Num,
adam,adamig-1-3,"Period, Subperiod, and Phase Timing",APxxETM,Perm,7,Period xx End Time,,Num,
adam,adamig-1-3,"Period, Subperiod, and Phase Timing",APxxEDTM,Perm,8,Period xx End Datetime,,Num,
adam,adamig-1-3,"Period, Subperiod, and Phase Timing",APxxEDTF,Cond,9,Period xx End Date Imput. Flag,,Char,C81223
adam,adamig-1-3,"Period, Subperiod, and Phase Timing",APxxETMF,Cond,10,Period xx End Time Imput. Flag,,Char,C81226
adam,adamig-1-3,"Period, Subperiod, and Phase Timing",PxxSw,Perm,11,Description of Period xx Subperiod w,,Char,
adam,adamig-1-3,"Period, Subperiod, and Phase Timing",PxxSwSDT,Perm,12,Period xx Subperiod w Start Date,,Num,
adam,adamig-1-3,"Period, Subperiod, and Phase Timing",PxxSwSTM,Perm,13,Period xx Subperiod w Start Time,,Num,
adam,adamig-1-3,"Period, Subperiod, and Phase Timing",PxxSwSDM,Perm,14,Period xx Subperiod w Start Datetime,,Num,
adam,adamig-1-3,"Period, Subperiod, and Phase Timing",PxxSwSDF,Cond,15,Period xx Subper w Start Date Imput Flag,,Char,C81223
adam,adamig-1-3,"Period, Subperiod, and Phase Timing",PxxSwSTF,Cond,16,Period xx Subper w Start Time Imput Flag,,Char,C81226
adam,adamig-1-3,"Period, Subperiod, and Phase Timing",PxxSwEDT,Perm,17,Period xx Subperiod w End Date,,Num,
adam,adamig-1-3,"Period, Subperiod, and Phase Timing",PxxSwETM,Perm,18,Period xx Subperiod w End Time,,Num,
adam,adamig-1-3,"Period, Subperiod, and Phase Timing",PxxSwEDM,Perm,19,Period xx Subperiod w End Datetime,,Num,
adam,adamig-1-3,"Period, Subperiod, and Phase Timing",PxxSwEDF,Cond,20,Period xx Subper w End Date Imput Flag,,Char,C81223
adam,adamig-1-3,"Period, Subperiod, and Phase Timing",PxxSwETF,Cond,21,Period xx Subper w End Time Imput Flag,,Char,C81226
adam,adamig-1-3,"Period, Subperiod, and Phase Timing",APHASEw,Perm,22,Description of Phase w,,Char,
adam,adamig-1-3,"Period, Subperiod, and Phase Timing",PHwSDT,Perm,23,Phase w Start Date,,Num,
adam,adamig-1-3,"Period, Subperiod, and Phase Timing",PHwSTM,Perm,24,Phase w Start Time,,Num,
adam,adamig-1-3,"Period, Subperiod, and Phase Timing",PHwSDTM,Perm,25,Phase w Start Datetime,,Num,
adam,adamig-1-3,"Period, Subperiod, and Phase Timing",PHwSDTF,Cond,26,Phase w Start Date Imputation Flag,,Char,C81223
adam,adamig-1-3,"Period, Subperiod, and Phase Timing",PHwSTMF,Cond,27,Phase w Start Time Imputation Flag,,Char,C81226
adam,adamig-1-3,"Period, Subperiod, and Phase Timing",PHwEDT,Perm,28,Phase w End Date,,Num,
adam,adamig-1-3,"Period, Subperiod, and Phase Timing",PHwETM,Perm,29,Phase w End Time,,Num,
adam,adamig-1-3,"Period, Subperiod, and Phase Timing",PHwEDTM,Perm,30,Phase w End Datetime,,Num,
adam,adamig-1-3,"Period, Subperiod, and Phase Timing",PHwEDTF,Cond,31,Phase w End Date Imputation Flag,,Char,C81223
adam,adamig-1-3,"Period, Subperiod, and Phase Timing",PHwETMF,Cond,32,Phase w End Time Imputation Flag,,Char,C81226
adam,adamig-1-3,Trial Experience,EOSSTT,Perm,1,End of Study Status,,Char,C124296
adam,adamig-1-3,Trial Experience,EOSDT,Perm,2,End of Study Date,,Num,
adam,adamig-1-3,Trial Experience,DCSREAS,Perm,3,Reason for Discontinuation from Study,,Char,
adam,adamig-1-3,Trial Experience,DCSREASP,Perm,4,Reason Spec for Discont from Study,,Char,
adam,adamig-1-3,Trial Experience,EOTSTT,Perm,5,End of Treatment Status,,Char,C124296
adam,adamig-1-3,Trial Experience,DCTREAS,Perm,6,Reason for Discontinuation of Treatment,,Char,
adam,adamig-1-3,Trial Experience,DCTREASP,Perm,7,Reason Specify for Discont of Treatment,,Char,
adam,adamig-1-3,Trial Experience,EOTxxSTT,Perm,8,End of Treatment Status in Period xx,,Char,C124296
adam,adamig-1-3,Trial Experience,DCTxxRS,Perm,9,Reason for Discont of Treat in Period xx,,Char,
adam,adamig-1-3,Trial Experience,DCTxxRSP,Perm,10,Reason Spec for Disc of Trt in Period xx,,Char,
adam,adamig-1-3,Trial Experience,EOPxxSTT,Perm,11,End of Period xx Status,,Char,C124296
adam,adamig-1-3,Trial Experience,DCPxxRS,Perm,12,Reason for Discont from Period xx,,Char,
adam,adamig-1-3,Trial Experience,DCPxxRSP,Perm,13,Reason Spec for Discont from Period xx,,Char,
adam,adamig-1-3,Trial Experience,RFICDT,Perm,14,Date of Informed Consent,,Num,
adam,adamig-1-3,Trial Experience,ENRLDT,Perm,15,Date of Enrollment,,Num,
adam,adamig-1-3,Trial Experience,RANDDT,Cond,16,Date of Randomization,,Num,
adam,adamig-1-3,Trial Experience,RFICyDT,Perm,17,Date of Informed Consent y,,Num,
adam,adamig-1-3,Trial Experience,ENRLyDT,Perm,18,Date of Enrollment y,,Num,
adam,adamig-1-3,Trial Experience,RANDyDT,Perm,19,Date of Randomization y,,Num,
adam,adamig-1-3,Trial Experience,LSTALVDT,Perm,20,Date Last Known Alive,,Num,
adam,adamig-1-3,Trial Experience,TRCMP,Perm,21,Treatment Compliance (%),,Num,
adam,adamig-1-3,Trial Experience,TRCMPGy,Perm,22,Treatment Compliance (%) Group y,,Char,
adam,adamig-1-3,Trial Experience,TRCMPGyN,Perm,23,Treatment Compliance (%) Group y (N),,Num,
adam,adamig-1-3,Trial Experience,TRxxDURD,Perm,24,Treatment Duration in Period xx (Days),,Num,
adam,adamig-1-3,Trial Experience,TRxxDURM,Perm,25,Treatment Duration in Period xx (Months),,Num,
adam,adamig-1-3,Trial Experience,TRxxDURY,Perm,26,Treatment Duration in Period xx (Years),,Num,
adam,adamig-1-3,Trial Experience,TRTDURD,Perm,27,Total Treatment Duration (Days),,Num,
adam,adamig-1-3,Trial Experience,TRTDURM,Perm,28,Total Treatment Duration (Months),,Num,
adam,adamig-1-3,Trial Experience,TRTDURY,Perm,29,Total Treatment Duration (Years),,Num,
adam,adamig-1-3,Trial Experience,DTHDT,Perm,30,Date of Death,,Num,
adam,adamig-1-3,Trial Experience,DTHDTF,Cond,31,Date of Death Imputation Flag,,Char,C81223
adam,adamig-1-3,Trial Experience,DTHCAUS,Perm,32,Cause of Death,,Char,
adam,adamig-1-3,Trial Experience,DTHCAUSN,Perm,33,Cause of Death (N),,Num,
adam,adamig-1-3,Trial Experience,DTHCGRy,Perm,34,Cause of Death Group y,,Char,
adam,adamig-1-3,Trial Experience,DTHCGRyN,Perm,35,Cause of Death Group y (N),,Num,
adam,adamig-1-3,Stratification,STRATAR,Perm,1,Strata Used for Randomization,,Char,
adam,adamig-1-3,Stratification,STRATARN,Perm,2,Strata Used for Randomization (N),,Num,
adam,adamig-1-3,Stratification,STRATwD,Perm,3,Description of Stratification Factor w,,Char,
adam,adamig-1-3,Stratification,STRATwR,Perm,4,Strat Factor w Value Used for Rand,,Char,
adam,adamig-1-3,Stratification,STRATwRN,Perm,5,Strat Factor w Value Used for Rand (N),,Num,
adam,adamig-1-3,Stratification,STRATAV,Perm,6,Strata from Verification Source,,Char,
adam,adamig-1-3,Stratification,STRATAVN,Perm,7,Strata from Verification Source (N),,Num,
adam,adamig-1-3,Stratification,STRATwV,Perm,8,Strat Factor w Value from Verif Source,,Char,
adam,adamig-1-3,Stratification,STRATwVN,Perm,9,Strat Fact w Val from Verif Source (N),,Num,
adam,adamig-1-3,Record-Level Treatment,TRTP,Cond,1,Planned Treatment,,Char,
adam,adamig-1-3,Record-Level Treatment,TRTPN,Perm,2,Planned Treatment (N),,Num,
adam,adamig-1-3,Record-Level Treatment,TRTA,Cond,3,Actual Treatment,,Char,
adam,adamig-1-3,Record-Level Treatment,TRTAN,Perm,4,Actual Treatment (N),,Num,
adam,adamig-1-3,Record-Level Treatment,TRTPGy,Perm,5,Planned Pooled Treatment y,,Char,
adam,adamig-1-3,Record-Level Treatment,TRTPGyN,Perm,6,Planned Pooled Treatment y (N),,Num,
adam,adamig-1-3,Record-Level Treatment,TRTAGy,Cond,7,Actual Pooled Treatment y,,Char,
adam,adamig-1-3,Record-Level Treatment,TRTAGyN,Perm,8,Actual Pooled Treatment y (N),,Num,
adam,adamig-1-3,Record-Level Dose,DOSEP,Perm,1,Planned Treatment Dose,,Num,
adam,adamig-1-3,Record-Level Dose,DOSCUMP,Perm,2,Cumulative Planned Treatment Dose,,Num,
adam,adamig-1-3,Record-Level Dose,DOSEA,Perm,3,Actual Treatment Dose,,Num,
adam,adamig-1-3,Record-Level Dose,DOSCUMA,Perm,4,Cumulative Actual Treatment Dose,,Num,
adam,adamig-1-3,Record-Level Dose,DOSEU,Perm,5,Treatment Dose Units,,Char,
adam,adamig-1-3,Timing,ADT,Cond,1,Analysis Date,,Num,
adam,adamig-1-3,Timing,ATM,Cond,2,Analysis Time,,Num,
adam,adamig-1-3,Timing,ADTM,Cond,3,Analysis Datetime,,Num,
adam,adamig-1-3,Timing,ADY,Cond,4,Analysis Relative Day,,Num,
adam,adamig-1-3,Timing,ADTF,Cond,5,Analysis Date Imputation Flag,,Char,C81223
adam,adamig-1-3,Timing,ATMF,Cond,6,Analysis Time Imputation Flag,,Char,C81226
adam,adamig-1-3,Timing,ASTDT,Cond,7,Analysis Start Date,,Num,
adam,adamig-1-3,Timing,ASTTM,Cond,8,Analysis Start Time,,Num,
adam,adamig-1-3,Timing,ASTDTM,Cond,9,Analysis Start Datetime,,Num,
adam,adamig-1-3,Timing,ASTDY,Cond,10,Analysis Start Relative Day,,Num,
adam,adamig-1-3,Timing,ASTDTF,Cond,11,Analysis Start Date Imputation Flag,,Char,C81223
adam,adamig-1-3,Timing,ASTTMF,Cond,12,Analysis Start Time Imputation Flag,,Char,C81226
adam,adamig-1-3,Timing,AENDT,Cond,13,Analysis End Date,,Num,
adam,adamig-1-3,Timing,AENTM,Cond,14,Analysis End Time,,Num,
adam,adamig-1-3,Timing,AENDTM,Cond,15,Analysis End Datetime,,Num,
adam,adamig-1-3,Timing,AENDY,Cond,16,Analysis End Relative Day,,Num,
adam,adamig-1-3,Timing,AENDTF,Cond,17,Analysis End Date Imputation Flag,,Char,C81223
adam,adamig-1-3,Timing,AENTMF,Cond,18,Analysis End Time Imputation Flag,,Char,C81226
adam,adamig-1-3,Timing,AVISIT,Cond,19,Analysis Visit,,Char,
adam,adamig-1-3,Timing,AVISITN,Perm,20,Analysis Visit (N),,Num,
adam,adamig-1-3,Timing,ATPT,Cond,21,Analysis Timepoint,,Char,
adam,adamig-1-3,Timing,ATPTN,Perm,22,Analysis Timepoint (N),,Num,
adam,adamig-1-3,Timing,ATPTREF,Perm,23,Analysis Timepoint Reference,,Char,
adam,adamig-1-3,Timing,APHASE,Perm,24,Phase,,Char,
adam,adamig-1-3,Timing,APHASEN,Perm,25,Phase (N),,Num,
adam,adamig-1-3,Timing,APERIOD,Cond,26,Period,,Num,
adam,adamig-1-3,Timing,APERIODC,Perm,27,Period (C),,Char,
adam,adamig-1-3,Timing,ASPER,Perm,28,Subperiod within Period,,Num,
adam,adamig-1-3,Timing,ASPERC,Perm,29,Subperiod within Period (C),,Char,
adam,adamig-1-3,Timing,ARELTM,Perm,30,Analysis Relative Time,,Num,
adam,adamig-1-3,Timing,ARELTMU,Perm,31,Analysis Relative Time Unit,,Char,
adam,adamig-1-3,"Period, Subperiod, and Phase Start and End Timing",APERSDT,Perm,1,Period Start Date,,Num,
adam,adamig-1-3,"Period, Subperiod, and Phase Start and End Timing",APERSTM,Perm,2,Period Start Time,,Num,
adam,adamig-1-3,"Period, Subperiod, and Phase Start and End Timing",APERSDTM,Perm,3,Period Start Datetime,,Num,
adam,adamig-1-3,"Period, Subperiod, and Phase Start and End Timing",APERSDTF,Cond,4,Period Start Date Imput. Flag,,Char,C81223
adam,adamig-1-3,"Period, Subperiod, and Phase Start and End Timing",APERSTMF,Cond,5,Period Start Time Imput. Flag,,Char,C81226
adam,adamig-1-3,"Period, Subperiod, and Phase Start and End Timing",APEREDT,Perm,6,Period End Date,,Num,
adam,adamig-1-3,"Period, Subperiod, and Phase Start and End Timing",APERETM,Perm,7,Period End Time,,Num,
adam,adamig-1-3,"Period, Subperiod, and Phase Start and End Timing",APEREDTM,Perm,8,Period End Datetime,,Num,
adam,adamig-1-3,"Period, Subperiod, and Phase Start and End Timing",APEREDTF,Cond,9,Period End Date Imput. Flag,,Char,C81223
adam,adamig-1-3,"Period, Subperiod, and Phase Start and End Timing",APERETMF,Cond,10,Period End Time Imput. Flag,,Char,C81226
adam,adamig-1-3,"Period, Subperiod, and Phase Start and End Timing",ASPRSDT,Perm,11,Subperiod Start Date,,Num,
adam,adamig-1-3,"Period, Subperiod, and Phase Start and End Timing",ASPRSTM,Perm,12,Subperiod Start Time,,Num,
adam,adamig-1-3,"Period, Subperiod, and Phase Start and End Timing",ASPRSDTM,Perm,13,Subperiod Start Datetime,,Num,
adam,adamig-1-3,"Period, Subperiod, and Phase Start and End Timing",ASPRSDTF,Cond,14,Subperiod Start Date Imput. Flag,,Char,C81223
adam,adamig-1-3,"Period, Subperiod, and Phase Start and End Timing",ASPRSTMF,Cond,15,Subperiod Start Time Imput. Flag,,Char,C81226
adam,adamig-1-3,"Period, Subperiod, and Phase Start and End Timing",ASPREDT,Perm,16,Subperiod End Date,,Num,
adam,adamig-1-3,"Period, Subperiod, and Phase Start and End Timing",ASPRETM,Perm,17,Subperiod End Time,,Num,
adam,adamig-1-3,"Period, Subperiod, and Phase Start and End Timing",ASPREDTM,Perm,18,Subperiod End Datetime,,Num,
adam,adamig-1-3,"Period, Subperiod, and Phase Start and End Timing",ASPREDTF,Cond,19,Subperiod End Date Imput. Flag,,Char,C81223
adam,adamig-1-3,"Period, Subperiod, and Phase Start and End Timing",ASPRETMF,Cond,20,Subperiod End Time Imput. Flag,,Char,C81226
adam,adamig-1-3,"Period, Subperiod, and Phase Start and End Timing",PHSDT,Perm,21,Phase Start Date,,Num,
adam,adamig-1-3,"Period, Subperiod, and Phase Start and End Timing",PHSTM,Perm,22,Phase Start Time,,Num,
adam,adamig-1-3,"Period, Subperiod, and Phase Start and End Timing",PHSDTM,Perm,23,Phase Start Datetime,,Num,
adam,adamig-1-3,"Period, Subperiod, and Phase Start and End Timing",PHSDTF,Cond,24,Phase Start Date Imput. Flag,,Char,C81223
adam,adamig-1-3,"Period, Subperiod, and Phase Start and End Timing",PHSTMF,Cond,25,Phase Start Time Imput. Flag,,Char,C81226
adam,adamig-1-3,"Period, Subperiod, and Phase Start and End Timing",PHEDT,Perm,26,Phase End Date,,Num,
adam,adamig-1-3,"Period, Subperiod, and Phase Start and End Timing",PHETM,Perm,27,Phase End Time,,Num,
adam,adamig-1-3,"Period, Subperiod, and Phase Start and End Timing",PHEDTM,Perm,28,Phase End Datetime,,Num,
adam,adamig-1-3,"Period, Subperiod, and Phase Start and End Timing",PHEDTF,Cond,29,Phase End Date Imput. Flag,,Char,C81223
adam,adamig-1-3,"Period, Subperiod, and Phase Start and End Timing",PHETMF,Cond,30,Phase End Time Imput. Flag,,Char,C81226
adam,adamig-1-3,Suffixes for User-Defined Timing,*DT,Perm,1,{Date},,Num,
adam,adamig-1-3,Suffixes for User-Defined Timing,*TM,Perm,2,{Time},,Num,
adam,adamig-1-3,Suffixes for User-Defined Timing,*DTM,Perm,3,{Datetime},,Num,
adam,adamig-1-3,Suffixes for User-Defined Timing,*ADY,Perm,4,{Relative Day},,Num,
adam,adamig-1-3,Suffixes for User-Defined Timing,*DTF,Cond,5,{Date Imputation Flag},,Char,C81223
adam,adamig-1-3,Suffixes for User-Defined Timing,*TMF,Cond,6,{Time Imputation Flag},,Char,C81226
adam,adamig-1-3,Suffixes for User-Defined Timing,*SDT,Perm,7,{Start Date},,Num,
adam,adamig-1-3,Suffixes for User-Defined Timing,*STM,Perm,8,{Start Time},,Num,
adam,adamig-1-3,Suffixes for User-Defined Timing,*SDTM,Perm,9,{Start Datetime},,Num,
adam,adamig-1-3,Suffixes for User-Defined Timing,*SDY,Perm,10,{Relative Start Day},,Num,
adam,adamig-1-3,Suffixes for User-Defined Timing,*SDTF,Cond,11,{Start Date Imputation Flag},,Char,C81223
adam,adamig-1-3,Suffixes for User-Defined Timing,*STMF,Cond,12,{Start Time Imputation Flag},,Char,C81226
adam,adamig-1-3,Suffixes for User-Defined Timing,*EDT,Perm,13,{End Date},,Num,
adam,adamig-1-3,Suffixes for User-Defined Timing,*ETM,Perm,14,{End Time},,Num,
adam,adamig-1-3,Suffixes for User-Defined Timing,*EDTM,Perm,15,{End Datetime},,Num,
adam,adamig-1-3,Suffixes for User-Defined Timing,*EDY,Perm,16,{Relative End Day},,Num,
adam,adamig-1-3,Suffixes for User-Defined Timing,*EDTF,Cond,17,{End Date Imputation Flag},,Char,C81223
adam,adamig-1-3,Suffixes for User-Defined Timing,*ETMF,Cond,18,{End Time Imputation Flag},,Char,C81226
adam,adamig-1-3,Analysis Parameter,PARAM,Req,1,Parameter,,Char,
adam,adamig-1-3,Analysis Parameter,PARAMCD,Req,2,Parameter Code,,Char,
adam,adamig-1-3,Analysis Parameter,PARAMN,Perm,3,Parameter (N),,Num,
adam,adamig-1-3,Analysis Parameter,PARCATy,Perm,4,Parameter Category y,,Char,
adam,adamig-1-3,Analysis Parameter,PARCATyN,Perm,5,Parameter Category y (N),,Num,
adam,adamig-1-3,Analysis Parameter,AVAL,Cond,6,Analysis Value,,Num,
adam,adamig-1-3,Analysis Parameter,AVALC,Cond,7,Analysis Value (C),,Char,
adam,adamig-1-3,Analysis Parameter,AVALCATy,Perm,8,Analysis Value Category y,,Char,
adam,adamig-1-3,Analysis Parameter,AVALCAyN,Perm,9,Analysis Value Category y (N),,Num,
adam,adamig-1-3,Analysis Parameter,BASE,Cond,10,Baseline Value,,Num,
adam,adamig-1-3,Analysis Parameter,BASEC,Perm,11,Baseline Value (C),,Char,
adam,adamig-1-3,Analysis Parameter,BASECATy,Perm,12,Baseline Category y,,Char,
adam,adamig-1-3,Analysis Parameter,BASECAyN,Perm,13,Baseline Category y (N),,Num,
adam,adamig-1-3,Analysis Parameter,BASETYPE,Cond,14,Baseline Type,,Char,
adam,adamig-1-3,Analysis Parameter,CHG,Perm,15,Change from Baseline,,Num,
adam,adamig-1-3,Analysis Parameter,CHGCATy,Perm,16,Change from Baseline Category y,,Char,
adam,adamig-1-3,Analysis Parameter,CHGCATyN,Perm,17,Change from Baseline Category y (N),,Num,
adam,adamig-1-3,Analysis Parameter,PCHG,Perm,18,Percent Change from Baseline,,Num,
adam,adamig-1-3,Analysis Parameter,PCHGCATy,Perm,19,Percent Chg from Baseline Category y,,Char,
adam,adamig-1-3,Analysis Parameter,PCHGCAyN,Perm,20,Percent Chg from Baseline Category y (N),,Num,
adam,adamig-1-3,Analysis Parameter,R2BASE,Perm,21,Ratio to Baseline,,Num,
adam,adamig-1-3,Analysis Parameter,R2AyLO,Perm,22,Ratio to Analysis Range y Lower Limit,,Num,
adam,adamig-1-3,Analysis Parameter,R2AyHI,Perm,23,Ratio to Analysis Range y Upper Limit,,Num,
adam,adamig-1-3,Analysis Parameter,SHIFTy,Perm,24,Shift y,,Char,
adam,adamig-1-3,Analysis Parameter,SHIFTyN,Perm,25,Shift y (N),,Num,
adam,adamig-1-3,Analysis Parameter,BCHG,Perm,26,Change to Baseline,,Num,
adam,adamig-1-3,Analysis Parameter,BCHGCATy,Perm,27,Change to Baseline Category y,,Char,
adam,adamig-1-3,Analysis Parameter,BCHGCAyN,Perm,28,Change to Baseline Category y (N),,Num,
adam,adamig-1-3,Analysis Parameter,PBCHG,Perm,29,Percent Change to Baseline,,Num,
adam,adamig-1-3,Analysis Parameter,PBCHGCAy,Perm,30,Percent Change to Baseline Category y,,Char,
adam,adamig-1-3,Analysis Parameter,PBCHGCyN,Perm,31,Percent Change to Baseline Category y (N),,Num,
adam,adamig-1-3,Analysis Parameter Criteria,CRITy,Perm,1,Analysis Criterion y,,Char,
adam,adamig-1-3,Analysis Parameter Criteria,CRITyFL,Cond,2,Criterion y Evaluation Result Flag,,Char,
adam,adamig-1-3,Analysis Parameter Criteria,CRITyFN,Perm,3,Criterion y Evaluation Result Flag (N),,Num,
adam,adamig-1-3,Analysis Parameter Criteria,MCRITy,Perm,4,Analysis Multi-Response Criterion y,,Char,
adam,adamig-1-3,Analysis Parameter Criteria,MCRITyML,Cond,5,Multi-Response Criterion y Evaluation,,Char,
adam,adamig-1-3,Analysis Parameter Criteria,MCRITyMN,Perm,6,Multi-Response Criterion y Eval (N),,Num,
adam,adamig-1-3,Analysis Descriptor,DTYPE,Cond,1,Derivation Type,,Char,C81224
adam,adamig-1-3,Analysis Visit Windowing,AWRANGE,Perm,1,Analysis Window Valid Relative Range,,Char,
adam,adamig-1-3,Analysis Visit Windowing,AWTARGET,Perm,2,Analysis Window Target,,Num,
adam,adamig-1-3,Analysis Visit Windowing,AWTDIFF,Perm,3,Analysis Window Diff from Target,,Num,
adam,adamig-1-3,Analysis Visit Windowing,AWLO,Perm,4,Analysis Window Beginning Timepoint,,Num,
adam,adamig-1-3,Analysis Visit Windowing,AWHI,Perm,5,Analysis Window Ending Timepoint,,Num,
adam,adamig-1-3,Analysis Visit Windowing,AWU,Perm,6,Analysis Window Unit,,Char,
adam,adamig-1-3,Time-to-Event,STARTDT,Perm,1,Time-to-Event Origin Date for Subject,,Num,
adam,adamig-1-3,Time-to-Event,STARTDTM,Perm,2,Time-to-Event Origin Datetime,,Num,
adam,adamig-1-3,Time-to-Event,STARTDTF,Cond,3,Origin Date Imputation Flag,,Char,C81223
adam,adamig-1-3,Time-to-Event,STARTTMF,Cond,4,Origin Time Imputation Flag,,Char,C81226
adam,adamig-1-3,Time-to-Event,CNSR,Cond,5,Censor,,Num,
adam,adamig-1-3,Time-to-Event,EVNTDESC,Perm,6,Event or Censoring Description,,Char,
adam,adamig-1-3,Time-to-Event,CNSDTDSC,Perm,7,Censor Date Description,,Char,
adam,adamig-1-3,Toxicity and Range,ATOXGR,Perm,1,Analysis Toxicity Grade,,Char,
adam,adamig-1-3,Toxicity and Range,ATOXGRN,Perm,2,Analysis Toxicity Grade (N),,Num,
adam,adamig-1-3,Toxicity and Range,BTOXGR,Perm,3,Baseline Toxicity Grade,,Char,
adam,adamig-1-3,Toxicity and Range,BTOXGRN,Perm,4,Baseline Toxicity Grade (N),,Num,
adam,adamig-1-3,Toxicity and Range,ANRIND,Perm,5,Analysis Reference Range Indicator,,Char,
adam,adamig-1-3,Toxicity and Range,BNRIND,Perm,6,Baseline Reference Range Indicator,,Char,
adam,adamig-1-3,Toxicity and Range,ANRLO,Perm,7,Analysis Normal Range Lower Limit,,Num,
adam,adamig-1-3,Toxicity and Range,ANRLOC,Perm,8,Analysis Normal Range Lower Limit (C),,Char,
adam,adamig-1-3,Toxicity and Range,ANRHI,Perm,9,Analysis Normal Range Upper Limit,,Num,
adam,adamig-1-3,Toxicity and Range,ANRHIC,Perm,10,Analysis Normal Range Upper Limit (C),,Char,
adam,adamig-1-3,Toxicity and Range,AyLO,Cond,11,Analysis Range y Lower Limit,,Num,
adam,adamig-1-3,Toxicity and Range,AyLOC,Perm,12,Analysis Range y Lower Limit (C),,Char,
adam,adamig-1-3,Toxicity and Range,AyHI,Cond,13,Analysis Range y Upper Limit,,Num,
adam,adamig-1-3,Toxicity and Range,AyHIC,Perm,14,Analysis Range y Upper Limit (C),,Char,
adam,adamig-1-3,Toxicity and Range,AyIND,Perm,15,Analysis Range y Indicator,,Char,
adam,adamig-1-3,Toxicity and Range,ByIND,Perm,16,Baseline Analysis Range y Indicator,,Char,
adam,adamig-1-3,Toxicity and Range,ATOXGRL,Perm,17,Analysis Toxicity Grade Low,,Char,
adam,adamig-1-3,Toxicity and Range,ATOXGRLN,Perm,18,Analysis Toxicity Grade Low (N),,Num,
adam,adamig-1-3,Toxicity and Range,ATOXGRH,Perm,19,Analysis Toxicity Grade High,,Char,
adam,adamig-1-3,Toxicity and Range,ATOXGRHN,Perm,20,Analysis Toxicity Grade High (N),,Num,
adam,adamig-1-3,Toxicity and Range,BTOXGRL,Perm,21,Baseline Toxicity Grade Low,,Char,
adam,adamig-1-3,Toxicity and Range,BTOXGRLN,Perm,22,Baseline Toxicity Grade Low (N),,Num,
adam,adamig-1-3,Toxicity and Range,BTOXGRH,Perm,23,Baseline Toxicity Grade High,,Char,
adam,adamig-1-3,Toxicity and Range,BTOXGRHN,Perm,24,Baseline Toxicity Grade High (N),,Num,
adam,adamig-1-3,Toxicity and Range,ATOXDSCL,Perm,25,Analysis Toxicity Description Low,,Char,
adam,adamig-1-3,Toxicity and Range,ATOXDSCH,Perm,26,Analysis Toxicity Description High,,Char,
adam,adamig-1-3,Flag,ABLFL,Cond,1,Baseline Record Flag,,Char,
adam,adamig-1-3,Flag,ABLFN,Perm,2,Baseline Record Flag (N),,Num,
adam,adamig-1-3,Flag,ANLzzFL,Cond,3,Analysis Flag zz,,Char,
adam,adamig-1-3,Flag,ANLzzFN,Perm,4,Analysis Flag zz (N),,Num,
adam,adamig-1-3,Flag,ONTRTFL,Perm,5,On Treatment Record Flag,,Char,
adam,adamig-1-3,Flag,ONTRTFN,Perm,6,On Treatment Record Flag (N),,Num,
adam,adamig-1-3,Flag,LVOTFL,Perm,7,Last Value On Treatment Record Flag,,Char,
adam,adamig-1-3,Flag,LVOTFN,Perm,8,Last Value On Treatment Record Flag (N),,Num,
adam,adamig-1-3,Population Indicators,ITTRFL,Perm,1,Intent-To-Treat Record-Level Flag,,Char,
adam,adamig-1-3,Population Indicators,SAFRFL,Perm,2,Safety Analysis Record-Level Flag,,Char,
adam,adamig-1-3,Population Indicators,FASRFL,Perm,3,Full Analysis Set Record-Level Flag,,Char,
adam,adamig-1-3,Population Indicators,PPROTRFL,Perm,4,Per-Protocol Record-Level Flag,,Char,
adam,adamig-1-3,Population Indicators,COMPLRFL,Perm,5,Completers Record-Level Flag,,Char,
adam,adamig-1-3,Population Indicators,ITTPFL,Perm,6,Intent-To-Treat Parameter-Level Flag,,Char,
adam,adamig-1-3,Population Indicators,SAFPFL,Perm,7,Safety Analysis Parameter-Level Flag,,Char,
adam,adamig-1-3,Population Indicators,FASPFL,Perm,8,Full Analysis Set Parameter-Level Flag,,Char,
adam,adamig-1-3,Population Indicators,PPROTPFL,Perm,9,Per-Protocol Parameter-Level Flag,,Char,
adam,adamig-1-3,Population Indicators,COMPLPFL,Perm,10,Completers Parameter-Level Flag,,Char,
adam,adamig-1-3,Datapoint Traceability,SRCDOM,Perm,1,Source Data,,Char,
adam,adamig-1-3,Datapoint Traceability,SRCVAR,Perm,2,Source Variable,,Char,
adam,adamig-1-3,Datapoint Traceability,SRCSEQ,Perm,3,Source Sequence Number,,Num,
sdtmig,3-1-2,DM,STUDYID,Req,1,Study Identifier,Identifier,Char,
sdtmig,3-1-2,DM,DOMAIN,Req,2,Domain Abbreviation,Identifier,Char,
sdtmig,3-1-2,DM,USUBJID,Req,3,Unique Subject Identifier,Identifier,Char,
sdtmig,3-1-2,DM,SUBJID,Req,4,Subject Identifier for the Study,Topic,Char,
sdtmig,3-1-2,DM,RFSTDTC,Exp,5,Subject Reference Start Date/Time,Record Qualifier,Char,
sdtmig,3-1-2,DM,RFENDTC,Exp,6,Subject Reference End Date/Time,Record Qualifier,Char,
sdtmig,3-1-2,DM,SITEID,Req,7,Study Site Identifier,Record Qualifier,Char,
sdtmig,3-1-2,DM,INVID,Perm,8,Investigator Identifier,Record Qualifier,Char,
sdtmig,3-1-2,DM,INVNAM,Perm,9,Investigator Name,Synonym Qualifier,Char,
sdtmig,3-1-2,DM,BRTHDTC,Perm,10,Date/Time of Birth,Record Qualifier,Char,
sdtmig,3-1-2,DM,AGE,Exp,11,Age,Record Qualifier,Num,
sdtmig,3-1-2,DM,AGEU,Exp,12,Age Units,Variable Qualifier,Char,C66781
sdtmig,3-1-2,DM,SEX,Req,13,Sex,Record Qualifier,Char,C66731
sdtmig,3-1-2,DM,RACE,Exp,14,Race,Record Qualifier,Char,C74457
sdtmig,3-1-2,DM,ETHNIC,Perm,15,Ethnicity,Record Qualifier,Char,C66790
sdtmig,3-1-2,DM,ARMCD,Req,16,Planned Arm Code,Record Qualifier,Char,
sdtmig,3-1-2,DM,ARM,Req,17,Description of Planned Arm,Synonym Qualifier,Char,
sdtmig,3-1-2,DM,COUNTRY,Req,18,Country,Record Qualifier,Char,
sdtmig,3-1-2,DM,DMDTC,Perm,19,Date/Time of Collection,Timing,Char,
sdtmig,3-1-2,DM,DMDY,Perm,20,Study Day of Collection,Timing,Num,
sdtmig,3-1-2,CO,STUDYID,Req,1,Study Identifier,Identifier,Char,
sdtmig,3-1-2,CO,DOMAIN,Req,2,Domain Abbreviation,Identifier,Char,
sdtmig,3-1-2,CO,RDOMAIN,Perm,3,Related Domain Abbreviation,Record Qualifier,Char,
sdtmig,3-1-2,CO,USUBJID,Req,4,Unique Subject Identifier,Identifier,Char,
sdtmig,3-1-2,CO,COSEQ,Req,5,Sequence Number,Identifier,Num,
sdtmig,3-1-2,CO,IDVAR,Perm,6,Identifying Variable,Record Qualifier,Char,
sdtmig,3-1-2,CO,IDVARVAL,Perm,7,Identifying Variable Value,Record Qualifier,Char,
sdtmig,3-1-2,CO,COREF,Perm,8,Comment Reference,Record Qualifier,Char,
sdtmig,3-1-2,CO,COVAL,Req,9,Comment,Topic,Char,
sdtmig,3-1-2,CO,COEVAL,Perm,10,Evaluator,Record Qualifier,Char,
sdtmig,3-1-2,CO,CODTC,Perm,11,Date/Time of Comment,Timing,Char,
sdtmig,3-1-2,SE,STUDYID,Req,1,Study Identifier,Identifier,Char,
sdtmig,3-1-2,SE,DOMAIN,Req,2,Domain Abbreviation,Identifier,Char,
sdtmig,3-1-2,SE,USUBJID,Req,3,Unique Subject Identifier,Identifier,Char,
sdtmig,3-1-2,SE,SESEQ,Req,4,Sequence Number,Identifier,Num,
sdtmig,3-1-2,SE,ETCD,Req,5,Element Code,Topic,Char,
sdtmig,3-1-2,SE,ELEMENT,Perm,6,Description of Element,Synonym Qualifier,Char,
sdtmig,3-1-2,SE,SESTDTC,Req,7,Start Date/Time of Element,Timing,Char,
sdtmig,3-1-2,SE,SEENDTC,Exp,8,End Date/Time of Element,Timing,Char,
sdtmig,3-1-2,SE,TAETORD,Perm,9,Planned Order of Elements within Arm,Timing,Num,
sdtmig,3-1-2,SE,EPOCH,Perm,10,Epoch,Timing,Char,
sdtmig,3-1-2,SE,SEUPDES,Perm,11,Description of Unplanned Element,Synonym Qualifier,Char,
sdtmig,3-1-2,SV,STUDYID,Req,1,Study Identifier,Identifier,Char,
sdtmig,3-1-2,SV,DOMAIN,Req,2,Domain Abbreviation,Identifier,Char,
sdtmig,3-1-2,SV,USUBJID,Req,3,Unique Subject Identifier,Identifier,Char,
sdtmig,3-1-2,SV,VISITNUM,Req,4,Visit Number,Topic,Num,
sdtmig,3-1-2,SV,VISIT,Perm,5,Visit Name,Synonym Qualifier,Char,
sdtmig,3-1-2,SV,VISITDY,Perm,6,Planned Study Day of Visit,Timing,Num,
sdtmig,3-1-2,SV,SVSTDTC,Exp,7,Start Date/Time of Visit,Timing,Char,
sdtmig,3-1-2,SV,SVENDTC,Exp,8,End Date/Time of Visit,Timing,Char,
sdtmig,3-1-2,SV,SVSTDY,Perm,9,Study Day of Start of Visit,Timing,Num,
sdtmig,3-1-2,SV,SVENDY,Perm,10,Study Day of End of Visit,Timing,Num,
sdtmig,3-1-2,SV,SVUPDES,Perm,11,Description of Unplanned Visit,Synonym Qualifier,Char,
sdtmig,3-1-2,CM,STUDYID,Req,1,Study Identifier,Identifier,Char,
sdtmig,3-1-2,CM,DOMAIN,Req,2,Domain Abbreviation,Identifier,Char,
sdtmig,3-1-2,CM,USUBJID,Req,3,Unique Subject Identifier,Identifier,Char,
sdtmig,3-1-2,CM,CMSEQ,Req,4,Sequence Number,Identifier,Num,
sdtmig,3-1-2,CM,CMGRPID,Perm,5,Group ID,Identifier,Char,
sdtmig,3-1-2,CM,CMSPID,Perm,6,Sponsor-Defined Identifier,Identifier,Char,
sdtmig,3-1-2,CM,CMTRT,Req,7,"Reported Name of Drug, Med, or Therapy",Topic,Char,
sdtmig,3-1-2,CM,CMMODIFY,Perm,8,Modified Reported Name,Synonym Qualifier,Char,
sdtmig,3-1-2,CM,CMDECOD,Perm,9,Standardized Medication Name,Synonym Qualifier,Char,
sdtmig,3-1-2,CM,CMCAT,Perm,10,Category for Medication,Grouping Qualifier,Char,
sdtmig,3-1-2,CM,CMSCAT,Perm,11,Subcategory for Medication,Grouping Qualifier,Char,
sdtmig,3-1-2,CM,CMPRESP,Perm,12,CM Pre-Specified,Record Qualifier,Char,C66742
sdtmig,3-1-2,CM,CMOCCUR,Perm,13,CM Occurrence,Record Qualifier,Char,C66742
sdtmig,3-1-2,CM,CMSTAT,Perm,14,Completion Status,Record Qualifier,Char,C66789
sdtmig,3-1-2,CM,CMREASND,Perm,15,Reason Medication Not Collected,Record Qualifier,Char,
sdtmig,3-1-2,CM,CMINDC,Perm,16,Indication,Record Qualifier,Char,
sdtmig,3-1-2,CM,CMCLAS,Perm,17,Medication Class,Variable Qualifier,Char,
sdtmig,3-1-2,CM,CMCLASCD,Perm,18,Medication Class Code,Variable Qualifier,Char,
sdtmig,3-1-2,CM,CMDOSE,Perm,19,Dose per Administration,Record Qualifier,Num,
sdtmig,3-1-2,CM,CMDOSTXT,Perm,20,Dose Description,Record Qualifier,Char,
sdtmig,3-1-2,CM,CMDOSU,Perm,21,Dose Units,Variable Qualifier,Char,C71620
sdtmig,3-1-2,CM,CMDOSFRM,Perm,22,Dose Form,Record Qualifier,Char,C66726
sdtmig,3-1-2,CM,CMDOSFRQ,Perm,23,Dosing Frequency Per Interval,Variable Qualifier,Char,C71113
sdtmig,3-1-2,CM,CMDOSTOT,Perm,24,Total Daily Dose,Record Qualifier,Num,
sdtmig,3-1-2,CM,CMDOSRGM,Perm,25,Intended Dose Regimen,Variable Qualifier,Char,
sdtmig,3-1-2,CM,CMROUTE,Perm,26,Route of Administration,Variable Qualifier,Char,C66729
sdtmig,3-1-2,CM,CMSTDTC,Perm,27,Start Date/Time of Medication,Timing,Char,
sdtmig,3-1-2,CM,CMENDTC,Perm,28,End Date/Time of Medication,Timing,Char,
sdtmig,3-1-2,CM,CMSTDY,Perm,29,Study Day of Start of Medication,Timing,Num,
sdtmig,3-1-2,CM,CMENDY,Perm,30,Study Day of End of Medication,Timing,Num,
sdtmig,3-1-2,CM,CMDUR,Perm,31,Duration of Medication,Timing,Char,
sdtmig,3-1-2,CM,CMSTRF,Perm,32,Start Relative to Reference Period,Timing,Char,C66728
sdtmig,3-1-2,CM,CMENRF,Perm,33,End Relative to Reference Period,Timing,Char,C66728
sdtmig,3-1-2,CM,CMSTRTPT,Perm,34,Start Relative to Reference Time Point,Timing,Char,
sdtmig,3-1-2,CM,CMSTTPT,Perm,35,Start Reference Time Point,Timing,Char,
sdtmig,3-1-2,CM,CMENRTPT,Perm,36,End Relative to Reference Time Point,Timing,Char,
sdtmig,3-1-2,CM,CMENTPT,Perm,37,End Reference Time Point,Timing,Char,
sdtmig,3-1-2,EX,STUDYID,Req,1,Study Identifier,Identifier,Char,
sdtmig,3-1-2,EX,DOMAIN,Req,2,Domain Abbreviation,Identifier,Char,
sdtmig,3-1-2,EX,USUBJID,Req,3,Unique Subject Identifier,Identifier,Char,
sdtmig,3-1-2,EX,EXSEQ,Req,4,Sequence Number,Identifier,Num,
sdtmig,3-1-2,EX,EXGRPID,Perm,5,Group ID,Identifier,Char,
sdtmig,3-1-2,EX,EXSPID,Perm,6,Sponsor-Defined Identifier,Identifier,Char,
sdtmig,3-1-2,EX,EXTRT,Req,7,Name of Actual Treatment,Topic,Char,
sdtmig,3-1-2,EX,EXCAT,Perm,8,Category for Treatment,Grouping Qualifier,Char,
sdtmig,3-1-2,EX,EXSCAT,Perm,9,Subcategory for Treatment,Grouping Qualifier,Char,
sdtmig,3-1-2,EX,EXDOSE,Exp,10,Dose per Administration,Record Qualifier,Num,
sdtmig,3-1-2,EX,EXDOSTXT,Perm,11,Dose Description,Record Qualifier,Char,
sdtmig,3-1-2,EX,EXDOSU,Exp,12,Dose Units,Variable Qualifier,Char,C71620
sdtmig,3-1-2,EX,EXDOSFRM,Exp,13,Dose Form,Record Qualifier,Char,C66726
sdtmig,3-1-2,EX,EXDOSFRQ,Perm,14,Dosing Frequency Per Interval,Variable Qualifier,Char,C71113
sdtmig,3-1-2,EX,EXDOSTOT,Perm,15,Total Daily Dose,Record Qualifier,Num,
sdtmig,3-1-2,EX,EXDOSRGM,Perm,16,Intended Dose Regimen,Variable Qualifier,Char,
sdtmig,3-1-2,EX,EXROUTE,Perm,17,Route of Administration,Variable Qualifier,Char,C66729
sdtmig,3-1-2,EX,EXLOT,Perm,18,Lot Number,Record Qualifier,Char,
sdtmig,3-1-2,EX,EXLOC,Perm,19,Location of Dose Administration,Record Qualifier,Char,C74456
sdtmig,3-1-2,EX,EXTRTV,Perm,20,Treatment Vehicle,Record Qualifier,Char,
sdtmig,3-1-2,EX,EXVAMT,Perm,21,Treatment Vehicle Amount,Variable Qualifier,Num,
sdtmig,3-1-2,EX,EXVAMTU,Perm,22,Treatment Vehicle Amount Units,Variable Qualifier,Char,C71620
sdtmig,3-1-2,EX,EXADJ,Perm,23,Reason for Dose Adjustment,Record Qualifier,Char,
sdtmig,3-1-2,EX,TAETORD,Perm,24,Order of Element within Arm,Timing,Num,
sdtmig,3-1-2,EX,EPOCH,Perm,25,Epoch,Timing,Char,
sdtmig,3-1-2,EX,EXSTDTC,Exp,26,Start Date/Time of Treatment,Timing,Char,
sdtmig,3-1-2,EX,EXENDTC,Perm,27,End Date/Time of Treatment,Timing,Char,
sdtmig,3-1-2,EX,EXSTDY,Perm,28,Study Day of Start of Treatment,Timing,Num,
sdtmig,3-1-2,EX,EXENDY,Perm,29,Study Day of End of Treatment,Timing,Num,
sdtmig,3-1-2,EX,EXDUR,Perm,30,Duration of Treatment,Timing,Char,
sdtmig,3-1-2,EX,EXTPT,Perm,31,Planned Time Point Name,Timing,Char,
sdtmig,3-1-2,EX,EXTPTNUM,Perm,32,Planned Time Point Number,Timing,Num,
sdtmig,3-1-2,EX,EXELTM,Perm,33,Planned Elapsed Time from Time Point Ref,Timing,Char,
sdtmig,3-1-2,EX,EXTPTREF,Perm,34,Time Point Reference,Timing,Char,
sdtmig,3-1-2,SU,STUDYID,Req,1,Study Identifier,Identifier,Char,
sdtmig,3-1-2,SU,DOMAIN,Req,2,Domain Abbreviation,Identifier,Char,
sdtmig,3-1-2,SU,USUBJID,Req,3,Unique Subject Identifier,Identifier,Char,
sdtmig,3-1-2,SU,SUSEQ,Req,4,Sequence Number,Identifier,Num,
sdtmig,3-1-2,SU,SUGRPID,Perm,5,Group ID,Identifier,Char,
sdtmig,3-1-2,SU,SUSPID,Perm,6,Sponsor-Defined Identifier,Identifier,Char,
sdtmig,3-1-2,SU,SUTRT,Req,7,Reported Name of Substance,Topic,Char,
sdtmig,3-1-2,SU,SUMODIFY,Perm,8,Modified Substance Name,Synonym Qualifier,Char,
sdtmig,3-1-2,SU,SUDECOD,Perm,9,Standardized Substance Name,Synonym Qualifier,Char,
sdtmig,3-1-2,SU,SUCAT,Perm,10,Category for Substance Use,Grouping Qualifier,Char,
sdtmig,3-1-2,SU,SUSCAT,Perm,11,Subcategory for Substance Use,Grouping Qualifier,Char,
sdtmig,3-1-2,SU,SUPRESP,Perm,12,SU Pre-Specified,Record Qualifier,Char,C66742
sdtmig,3-1-2,SU,SUOCCUR,Perm,13,SU Occurrence,Record Qualifier,Char,C66742
sdtmig,3-1-2,SU,SUSTAT,Perm,14,Completion Status,Record Qualifier,Char,C66789
sdtmig,3-1-2,SU,SUREASND,Perm,15,Reason Substance Use Not Collected,Record Qualifier,Char,
sdtmig,3-1-2,SU,SUCLAS,Perm,16,Substance Use Class,Variable Qualifier,Char,
sdtmig,3-1-2,SU,SUCLASCD,Perm,17,Substance Use Class Code,Variable Qualifier,Char,
sdtmig,3-1-2,SU,SUDOSE,Perm,18,Substance Use Consumption,Record Qualifier,Num,
sdtmig,3-1-2,SU,SUDOSTXT,Perm,19,Substance Use Consumption Text,Record Qualifier,Char,
sdtmig,3-1-2,SU,SUDOSU,Perm,20,Consumption Units,Variable Qualifier,Char,C71620
sdtmig,3-1-2,SU,SUDOSFRM,Perm,21,Dose Form,Record Qualifier,Char,
sdtmig,3-1-2,SU,SUDOSFRQ,Perm,22,Use Frequency Per Interval,Variable Qualifier,Char,C71113
sdtmig,3-1-2,SU,SUDOSTOT,Perm,23,Total Daily Consumption,Record Qualifier,Num,
sdtmig,3-1-2,SU,SUROUTE,Perm,24,Route of Administration,Variable Qualifier,Char,C66729
sdtmig,3-1-2,SU,SUSTDTC,Perm,25,Start Date/Time of Substance Use,Timing,Char,
sdtmig,3-1-2,SU,SUENDTC,Perm,26,End Date/Time of Substance Use,Timing,Char,
sdtmig,3-1-2,SU,SUSTDY,Perm,27,Study Day of Start of Substance Use,Timing,Num,
sdtmig,3-1-2,SU,SUENDY,Perm,28,Study Day of End of Substance Use,Timing,Num,
sdtmig,3-1-2,SU,SUDUR,Perm,29,Duration of Substance Use,Timing,Char,
sdtmig,3-1-2,SU,SUSTRF,Perm,30,Start Relative to Reference Period,Timing,Char,C66728
sdtmig,3-1-2,SU,SUENRF,Perm,31,End Relative to Reference Period,Timing,Char,C66728
sdtmig,3-1-2,SU,SUSTRTPT,Perm,32,Start Relative to Reference Time Point,Timing,Char,
sdtmig,3-1-2,SU,SUSTTPT,Perm,33,Start Reference Time Point,Timing,Char,
sdtmig,3-1-2,SU,SUENRTPT,Perm,34,End Relative to Reference Time Point,Timing,Char,
sdtmig,3-1-2,SU,SUENTPT,Perm,35,End Reference Time Point,Timing,Char,
sdtmig,3-1-2,AE,STUDYID,Req,1,Study Identifier,Identifier,Char,
sdtmig,3-1-2,AE,DOMAIN,Req,2,Domain Abbreviation,Identifier,Char,
sdtmig,3-1-2,AE,USUBJID,Req,3,Unique Subject Identifier,Identifier,Char,
sdtmig,3-1-2,AE,AESEQ,Req,4,Sequence Number,Identifier,Num,
sdtmig,3-1-2,AE,AEGRPID,Perm,5,Group ID,Identifier,Char,
sdtmig,3-1-2,AE,AEREFID,Perm,6,Reference ID,Identifier,Char,
sdtmig,3-1-2,AE,AESPID,Perm,7,Sponsor-Defined Identifier,Identifier,Char,
sdtmig,3-1-2,AE,AETERM,Req,8,Reported Term for the Adverse Event,Topic,Char,
sdtmig,3-1-2,AE,AEMODIFY,Perm,9,Modified Reported Term,Synonym Qualifier,Char,
sdtmig,3-1-2,AE,AEDECOD,Req,10,Dictionary-Derived Term,Synonym Qualifier,Char,
sdtmig,3-1-2,AE,AECAT,Perm,11,Category for Adverse Event,Grouping Qualifier,Char,
sdtmig,3-1-2,AE,AESCAT,Perm,12,Subcategory for Adverse Event,Grouping Qualifier,Char,
sdtmig,3-1-2,AE,AEPRESP,Perm,13,Pre-Specified Adverse Event,Record Qualifier,Char,C66742
sdtmig,3-1-2,AE,AEBODSYS,Exp,14,Body System or Organ Class,Record Qualifier,Char,
sdtmig,3-1-2,AE,AELOC,Perm,15,Location of Event,Record Qualifier,Char,C74456
sdtmig,3-1-2,AE,AESEV,Perm,16,Severity/Intensity,Record Qualifier,Char,C66769
sdtmig,3-1-2,AE,AESER,Exp,17,Serious Event,Record Qualifier,Char,C66742
sdtmig,3-1-2,AE,AEACN,Exp,18,Action Taken with Study Treatment,Record Qualifier,Char,C66767
sdtmig,3-1-2,AE,AEACNOTH,Perm,19,Other Action Taken,Record Qualifier,Char,
sdtmig,3-1-2,AE,AEREL,Exp,20,Causality,Record Qualifier,Char,
sdtmig,3-1-2,AE,AERELNST,Perm,21,Relationship to Non-Study Treatment,Record Qualifier,Char,
sdtmig,3-1-2,AE,AEPATT,Perm,22,Pattern of Adverse Event,Record Qualifier,Char,
sdtmig,3-1-2,AE,AEOUT,Perm,23,Outcome of Adverse Event,Record Qualifier,Char,C66768
sdtmig,3-1-2,AE,AESCAN,Perm,24,Involves Cancer,Record Qualifier,Char,C66742
sdtmig,3-1-2,AE,AESCONG,Perm,25,Congenital Anomaly or Birth Defect,Record Qualifier,Char,C66742
sdtmig,3-1-2,AE,AESDISAB,Perm,26,Persist or Signif Disability/Incapacity,Record Qualifier,Char,C66742
sdtmig,3-1-2,AE,AESDTH,Perm,27,Results in Death,Record Qualifier,Char,C66742
sdtmig,3-1-2,AE,AESHOSP,Perm,28,Requires or Prolongs Hospitalization,Record Qualifier,Char,C66742
sdtmig,3-1-2,AE,AESLIFE,Perm,29,Is Life Threatening,Record Qualifier,Char,C66742
sdtmig,3-1-2,AE,AESOD,Perm,30,Occurred with Overdose,Record Qualifier,Char,C66742
sdtmig,3-1-2,AE,AESMIE,Perm,31,Other Medically Important Serious Event,Record Qualifier,Char,C66742
sdtmig,3-1-2,AE,AECONTRT,Perm,32,Concomitant or Additional Trtmnt Given,Record Qualifier,Char,C66742
sdtmig,3-1-2,AE,AETOXGR,Perm,33,Standard Toxicity Grade,Record Qualifier,Char,
sdtmig,3-1-2,AE,AESTDTC,Exp,34,Start Date/Time of Adverse Event,Timing,Char,
sdtmig,3-1-2,AE,AEENDTC,Exp,35,End Date/Time of Adverse Event,Timing,Char,
sdtmig,3-1-2,AE,AESTDY,Perm,36,Study Day of Start of Adverse Event,Timing,Num,
sdtmig,3-1-2,AE,AEENDY,Perm,37,Study Day of End of Adverse Event,Timing,Num,
sdtmig,3-1-2,AE,AEDUR,Perm,38,Duration of Adverse Event,Timing,Char,
sdtmig,3-1-2,AE,AEENRF,Perm,39,End Relative to Reference Period,Timing,Char,C66728
sdtmig,3-1-2,AE,AEENRTPT,Perm,40,End Relative to Reference Time Point,Timing,Char,
sdtmig,3-1-2,AE,AEENTPT,Perm,41,End Reference Time Point,Timing,Char,
sdtmig,3-1-2,DS,STUDYID,Req,1,Study Identifier,Identifier,Char,
sdtmig,3-1-2,DS,DOMAIN,Req,2,Domain Abbreviation,Identifier,Char,
sdtmig,3-1-2,DS,USUBJID,Req,3,Unique Subject Identifier,Identifier,Char,
sdtmig,3-1-2,DS,DSSEQ,Req,4,Sequence Number,Identifier,Num,
sdtmig,3-1-2,DS,DSGRPID,Perm,5,Group ID,Identifier,Char,
sdtmig,3-1-2,DS,DSREFID,Perm,6,Reference ID,Identifier,Char,
sdtmig,3-1-2,DS,DSSPID,Perm,7,Sponsor-Defined Identifier,Identifier,Char,
sdtmig,3-1-2,DS,DSTERM,Req,8,Reported Term for the Disposition Event,Topic,Char,
sdtmig,3-1-2,DS,DSDECOD,Req,9,Standardized Disposition Term,Synonym Qualifier,Char,C66727
sdtmig,3-1-2,DS,DSCAT,Exp,10,Category for Disposition Event,Grouping Qualifier,Char,C74558
sdtmig,3-1-2,DS,DSSCAT,Perm,11,Subcategory for Disposition Event,Grouping Qualifier,Char,
sdtmig,3-1-2,DS,EPOCH,Perm,12,Epoch,Timing,Char,
sdtmig,3-1-2,DS,DSDTC,Perm,13,Date/Time of Collection,Timing,Char,
sdtmig,3-1-2,DS,DSSTDTC,Exp,14,Start Date/Time of Disposition Event,Timing,Char,
sdtmig,3-1-2,DS,DSSTDY,Perm,15,Study Day of Start of Disposition Event,Timing,Num,
sdtmig,3-1-2,MH,STUDYID,Req,1,Study Identifier,Identifier,Char,
sdtmig,3-1-2,MH,DOMAIN,Req,2,Domain Abbreviation,Identifier,Char,
sdtmig,3-1-2,MH,USUBJID,Req,3,Unique Subject Identifier,Identifier,Char,
sdtmig,3-1-2,MH,MHSEQ,Req,4,Sequence Number,Identifier,Num,
sdtmig,3-1-2,MH,MHGRPID,Perm,5,Group ID,Identifier,Char,
sdtmig,3-1-2,MH,MHREFID,Perm,6,Reference ID,Identifier,Char,
sdtmig,3-1-2,MH,MHSPID,Perm,7,Sponsor-Defined Identifier,Identifier,Char,
sdtmig,3-1-2,MH,MHTERM,Req,8,Reported Term for the Medical History,Topic,Char,
sdtmig,3-1-2,MH,MHMODIFY,Perm,9,Modified Reported Term,Synonym Qualifier,Char,
sdtmig,3-1-2,MH,MHDECOD,Perm,10,Dictionary-Derived Term,Synonym Qualifier,Char,
sdtmig,3-1-2,MH,MHCAT,Perm,11,Category for Medical History,Grouping Qualifier,Char,
sdtmig,3-1-2,MH,MHSCAT,Perm,12,Subcategory for Medical History,Grouping Qualifier,Char,
sdtmig,3-1-2,MH,MHPRESP,Perm,13,Medical History Event Pre-Specified,Record Qualifier,Char,C66742
sdtmig,3-1-2,MH,MHOCCUR,Perm,14,Medical History Occurrence,Record Qualifier,Char,C66742
sdtmig,3-1-2,MH,MHSTAT,Perm,15,Completion Status,Record Qualifier,Char,C66789
sdtmig,3-1-2,MH,MHREASND,Perm,16,Reason Medical History Not Collected,Record Qualifier,Char,
sdtmig,3-1-2,MH,MHBODSYS,Perm,17,Body System or Organ Class,Record Qualifier,Char,
sdtmig,3-1-2,MH,MHDTC,Perm,18,Date/Time of History Collection,Timing,Char,
sdtmig,3-1-2,MH,MHSTDTC,Perm,19,Start Date/Time of Medical History Event,Timing,Char,
sdtmig,3-1-2,MH,MHENDTC,Perm,20,End Date/Time of Medical History Event,Timing,Char,
sdtmig,3-1-2,MH,MHDY,Perm,21,Study Day of History Collection,Timing,Num,
sdtmig,3-1-2,MH,MHENRF,Perm,22,End Relative to Reference Period,Timing,Char,C66728
sdtmig,3-1-2,MH,MHENRTPT,Perm,23,End Relative to Reference Time Point,Timing,Char,
sdtmig,3-1-2,MH,MHENTPT,Perm,24,End Reference Time Point,Timing,Char,
sdtmig,3-1-2,DV,STUDYID,Req,1,Study Identifier,Identifier,Char,
sdtmig,3-1-2,DV,DOMAIN,Req,2,Domain Abbreviation,Identifier,Char,
sdtmig,3-1-2,DV,USUBJID,Req,3,Unique Subject Identifier,Identifier,Char,
sdtmig,3-1-2,DV,DVSEQ,Req,4,Sequence Number,Identifier,Num,
sdtmig,3-1-2,DV,DVREFID,Perm,5,Reference ID,Identifier,Char,
sdtmig,3-1-2,DV,DVSPID,Perm,6,Sponsor-Defined Identifier,Identifier,Char,
sdtmig,3-1-2,DV,DVTERM,Req,7,Protocol Deviation Term,Topic,Char,
sdtmig,3-1-2,DV,DVDECOD,Perm,8,Protocol Deviation Coded Term,Synonym Qualifier,Char,
sdtmig,3-1-2,DV,DVCAT,Perm,9,Category for Protocol Deviation,Grouping Qualifier,Char,
sdtmig,3-1-2,DV,DVSCAT,Perm,10,Subcategory for Protocol Deviation,Grouping Qualifier,Char,
sdtmig,3-1-2,DV,EPOCH,Perm,11,Epoch,Timing,Char,
sdtmig,3-1-2,DV,DVSTDTC,Perm,12,Start Date/Time of Deviation,Timing,Char,
sdtmig,3-1-2,DV,DVENDTC,Perm,13,End Date/Time of Deviation,Timing,Char,
sdtmig,3-1-2,CE,STUDYID,Req,1,Study Identifier,Identifier,Char,
sdtmig,3-1-2,CE,DOMAIN,Req,2,Domain Abbreviation,Identifier,Char,
sdtmig,3-1-2,CE,USUBJID,Req,3,Unique Subject Identifier,Identifier,Char,
sdtmig,3-1-2,CE,CESEQ,Req,4,Sequence Number,Identifier,Num,
sdtmig,3-1-2,CE,CEGRPID,Perm,5,Group ID,Identifier,Char,
sdtmig,3-1-2,CE,CEREFID,Perm,6,Reference ID,Identifier,Char,
sdtmig,3-1-2,CE,CESPID,Perm,7,Sponsor-Defined Identifier,Identifier,Char,
sdtmig,3-1-2,CE,CETERM,Req,8,Reported Term for the Clinical Event,Topic,Char,
sdtmig,3-1-2,CE,CEDECOD,Perm,9,Dictionary-Derived Term,Synonym Qualifier,Char,
sdtmig,3-1-2,CE,CECAT,Perm,10,Category for Clinical Event,Grouping Qualifier,Char,
sdtmig,3-1-2,CE,CESCAT,Perm,11,Subcategory for Clinical Event,Grouping Qualifier,Char,
sdtmig,3-1-2,CE,CEPRESP,Perm,12,Clinical Event Pre-Specified,Record Qualifier,Char,C66742
sdtmig,3-1-2,CE,CEOCCUR,Perm,13,Clinical Event Occurrence,Record Qualifier,Char,C66742
sdtmig,3-1-2,CE,CESTAT,Perm,14,Completion Status,Record Qualifier,Char,C66789
sdtmig,3-1-2,CE,CEREASND,Perm,15,Reason Clinical Event Not Collected,Record Qualifier,Char,
sdtmig,3-1-2,CE,CEBODSYS,Perm,16,Body System or Organ Class,Record Qualifier,Char,
sdtmig,3-1-2,CE,CESEV,Perm,17,Severity/Intensity,Record Qualifier,Char,
sdtmig,3-1-2,CE,CEDTC,Perm,18,Date/Time of Event Collection,Timing,Char,
sdtmig,3-1-2,CE,CESTDTC,Perm,19,Start Date/Time of Clinical Event,Timing,Char,
sdtmig,3-1-2,CE,CEENDTC,Perm,20,End Date/Time of Clinical Event,Timing,Char,
sdtmig,3-1-2,CE,CEDY,Perm,21,Study Day of Event Collection,Timing,Num,
sdtmig,3-1-2,CE,CESTRF,Perm,22,Start Relative to Reference Period,Timing,Char,C66728
sdtmig,3-1-2,CE,CEENRF,Perm,23,End Relative to Reference Period,Timing,Char,C66728
sdtmig,3-1-2,CE,CESTRTPT,Perm,24,Start Relative to Reference Time Point,Timing,Char,
sdtmig,3-1-2,CE,CESTTPT,Perm,25,Start Reference Time Point,Timing,Char,
sdtmig,3-1-2,CE,CEENRTPT,Perm,26,End Relative to Reference Time Point,Timing,Char,
sdtmig,3-1-2,CE,CEENTPT,Perm,27,End Reference Time Point,Timing,Char,
sdtmig,3-1-2,EG,STUDYID,Req,1,Study Identifier,Identifier,Char,
sdtmig,3-1-2,EG,DOMAIN,Req,2,Domain Abbreviation,Identifier,Char,
sdtmig,3-1-2,EG,USUBJID,Req,3,Unique Subject Identifier,Identifier,Char,
sdtmig,3-1-2,EG,EGSEQ,Req,4,Sequence Number,Identifier,Num,
sdtmig,3-1-2,EG,EGGRPID,Perm,5,Group ID,Identifier,Char,
sdtmig,3-1-2,EG,EGREFID,Perm,6,ECG Reference ID,Identifier,Char,
sdtmig,3-1-2,EG,EGSPID,Perm,7,Sponsor-Defined Identifier,Identifier,Char,
sdtmig,3-1-2,EG,EGTESTCD,Req,8,ECG Test or Examination Short Name,Topic,Char,C71153
sdtmig,3-1-2,EG,EGTEST,Req,9,ECG Test or Examination Name,Synonym Qualifier,Char,C71152
sdtmig,3-1-2,EG,EGCAT,Perm,10,Category for ECG,Grouping Qualifier,Char,
sdtmig,3-1-2,EG,EGSCAT,Perm,11,Subcategory for ECG,Grouping Qualifier,Char,
sdtmig,3-1-2,EG,EGPOS,Perm,12,ECG Position of Subject,Record Qualifier,Char,C71148
sdtmig,3-1-2,EG,EGORRES,Exp,13,Result or Finding in Original Units,Result Qualifier,Char,
sdtmig,3-1-2,EG,EGORRESU,Perm,14,Original Units,Variable Qualifier,Char,C71620
sdtmig,3-1-2,EG,EGSTRESC,Exp,15,Character Result/Finding in Std Format,Result Qualifier,Char,C71150
sdtmig,3-1-2,EG,EGSTRESN,Perm,16,Numeric Result/Finding in Standard Units,Result Qualifier,Num,
sdtmig,3-1-2,EG,EGSTRESU,Perm,17,Standard Units,Variable Qualifier,Char,C71620
sdtmig,3-1-2,EG,EGSTAT,Perm,18,Completion Status,Record Qualifier,Char,C66789
sdtmig,3-1-2,EG,EGREASND,Perm,19,Reason ECG Not Performed,Record Qualifier,Char,
sdtmig,3-1-2,EG,EGXFN,Perm,20,ECG External File Name,Record Qualifier,Char,
sdtmig,3-1-2,EG,EGNAM,Perm,21,Vendor Name,Record Qualifier,Char,
sdtmig,3-1-2,EG,EGLOC,Perm,22,Lead Location Used for Measurement,Record Qualifier,Char,C74456
sdtmig,3-1-2,EG,EGMETHOD,Perm,23,Method of ECG Test,Record Qualifier,Char,C71151
sdtmig,3-1-2,EG,EGBLFL,Exp,24,Baseline Flag,Record Qualifier,Char,C66742
sdtmig,3-1-2,EG,EGDRVFL,Perm,25,Derived Flag,Record Qualifier,Char,C66742
sdtmig,3-1-2,EG,EGEVAL,Perm,26,Evaluator,Record Qualifier,Char,
sdtmig,3-1-2,EG,VISITNUM,Exp,27,Visit Number,Timing,Num,
sdtmig,3-1-2,EG,VISIT,Perm,28,Visit Name,Timing,Char,
sdtmig,3-1-2,EG,VISITDY,Perm,29,Planned Study Day of Visit,Timing,Num,
sdtmig,3-1-2,EG,EGDTC,Exp,30,Date/Time of ECG,Timing,Char,
sdtmig,3-1-2,EG,EGDY,Perm,31,Study Day of ECG,Timing,Num,
sdtmig,3-1-2,EG,EGTPT,Perm,32,Planned Time Point Name,Timing,Char,
sdtmig,3-1-2,EG,EGTPTNUM,Perm,33,Planned Time Point Number,Timing,Num,
sdtmig,3-1-2,EG,EGELTM,Perm,34,Planned Elapsed Time from Time Point Ref,Timing,Char,
sdtmig,3-1-2,EG,EGTPTREF,Perm,35,Time Point Reference,Timing,Char,
sdtmig,3-1-2,EG,EGRFTDTC,Perm,36,Date/Time of Reference Time Point,Timing,Char,
sdtmig,3-1-2,IE,STUDYID,Req,1,Study Identifier,Identifier,Char,
sdtmig,3-1-2,IE,DOMAIN,Req,2,Domain Abbreviation,Identifier,Char,
sdtmig,3-1-2,IE,USUBJID,Req,3,Unique Subject Identifier,Identifier,Char,
sdtmig,3-1-2,IE,IESEQ,Req,4,Sequence Number,Identifier,Num,
sdtmig,3-1-2,IE,IESPID,Perm,5,Sponsor-Defined Identifier,Identifier,Char,
sdtmig,3-1-2,IE,IETESTCD,Req,6,Inclusion/Exclusion Criterion Short Name,Topic,Char,
sdtmig,3-1-2,IE,IETEST,Req,7,Inclusion/Exclusion Criterion,Synonym Qualifier,Char,
sdtmig,3-1-2,IE,IECAT,Req,8,Inclusion/Exclusion Category,Grouping Qualifier,Char,C66797
sdtmig,3-1-2,IE,IESCAT,Perm,9,Inclusion/Exclusion Subcategory,Grouping Qualifier,Char,
sdtmig,3-1-2,IE,IEORRES,Req,10,I/E Criterion Original Result,Result Qualifier,Char,C66742
sdtmig,3-1-2,IE,IESTRESC,Req,11,I/E Criterion Result in Std Format,Result Qualifier,Char,C66742
sdtmig,3-1-2,IE,VISITNUM,Perm,12,Visit Number,Timing,Num,
sdtmig,3-1-2,IE,VISIT,Perm,13,Visit Name,Timing,Char,
sdtmig,3-1-2,IE,VISITDY,Perm,14,Planned Study Day of Visit,Timing,Num,
sdtmig,3-1-2,IE,IEDTC,Perm,15,Date/Time of Collection,Timing,Char,
sdtmig,3-1-2,IE,IEDY,Perm,16,Study Day of Collection,Timing,Num,
sdtmig,3-1-2,LB,STUDYID,Req,1,Study Identifier,Identifier,Char,
sdtmig,3-1-2,LB,DOMAIN,Req,2,Domain Abbreviation,Identifier,Char,
sdtmig,3-1-2,LB,USUBJID,Req,3,Unique Subject Identifier,Identifier,Char,
sdtmig,3-1-2,LB,LBSEQ,Req,4,Sequence Number,Identifier,Num,
sdtmig,3-1-2,LB,LBGRPID,Perm,5,Group ID,Identifier,Char,
sdtmig,3-1-2,LB,LBREFID,Perm,6,Specimen ID,Identifier,Char,
sdtmig,3-1-2,LB,LBSPID,Perm,7,Sponsor-Defined Identifier,Identifier,Char,
sdtmig,3-1-2,LB,LBTESTCD,Req,8,Lab Test or Examination Short Name,Topic,Char,C65047
sdtmig,3-1-2,LB,LBTEST,Req,9,Lab Test or Examination Name,Synonym Qualifier,Char,C67154
sdtmig,3-1-2,LB,LBCAT,Exp,10,Category for Lab Test,Grouping Qualifier,Char,
sdtmig,3-1-2,LB,LBSCAT,Perm,11,Subcategory for Lab Test,Grouping Qualifier,Char,
sdtmig,3-1-2,LB,LBORRES,Exp,12,Result or Finding in Original Units,Result Qualifier,Char,
sdtmig,3-1-2,LB,LBORRESU,Exp,13,Original Units,Variable Qualifier,Char,C71620
sdtmig,3-1-2,LB,LBORNRLO,Exp,14,Reference Range Lower Limit in Orig Unit,Variable Qualifier,Char,
sdtmig,3-1-2,LB,LBORNRHI,Exp,15,Reference Range Upper Limit in Orig Unit,Variable Qualifier,Char,
sdtmig,3-1-2,LB,LBSTRESC,Exp,16,Character Result/Finding in Std Format,Result Qualifier,Char,
sdtmig,3-1-2,LB,LBSTRESN,Exp,17,Numeric Result/Finding in Standard Units,Result Qualifier,Num,
sdtmig,3-1-2,LB,LBSTRESU,Exp,18,Standard Units,Variable Qualifier,Char,C71620
sdtmig,3-1-2,LB,LBSTNRLO,Exp,19,Reference Range Lower Limit-Std Units,Variable Qualifier,Num,
sdtmig,3-1-2,LB,LBSTNRHI,Exp,20,Reference Range Upper Limit-Std Units,Variable Qualifier,Num,
sdtmig,3-1-2,LB,LBSTNRC,Perm,21,Reference Range for Char Rslt-Std Units,Variable Qualifier,Char,
sdtmig,3-1-2,LB,LBNRIND,Exp,22,Reference Range Indicator,Variable Qualifier,Char,
sdtmig,3-1-2,LB,LBSTAT,Perm,23,Completion Status,Record Qualifier,Char,C66789
sdtmig,3-1-2,LB,LBREASND,Perm,24,Reason Test Not Done,Record Qualifier,Char,
sdtmig,3-1-2,LB,LBNAM,Perm,25,Vendor Name,Record Qualifier,Char,
sdtmig,3-1-2,LB,LBLOINC,Perm,26,LOINC Code,Synonym Qualifier,Char,
sdtmig,3-1-2,LB,LBSPEC,Perm,27,Specimen Type,Record Qualifier,Char,
sdtmig,3-1-2,LB,LBSPCCND,Perm,28,Specimen Condition,Record Qualifier,Char,
sdtmig,3-1-2,LB,LBMETHOD,Perm,29,Method of Test or Examination,Record Qualifier,Char,
sdtmig,3-1-2,LB,LBBLFL,Exp,30,Baseline Flag,Record Qualifier,Char,C66742
sdtmig,3-1-2,LB,LBFAST,Perm,31,Fasting Status,Record Qualifier,Char,C66742
sdtmig,3-1-2,LB,LBDRVFL,Perm,32,Derived Flag,Record Qualifier,Char,C66742
sdtmig,3-1-2,LB,LBTOX,Perm,33,Toxicity,Variable Qualifier,Char,
sdtmig,3-1-2,LB,LBTOXGR,Perm,34,Standard Toxicity Grade,Variable Qualifier,Char,
sdtmig,3-1-2,LB,VISITNUM,Exp,35,Visit Number,Timing,Num,
sdtmig,3-1-2,LB,VISIT,Perm,36,Visit Name,Timing,Char,
sdtmig,3-1-2,LB,VISITDY,Perm,37,Planned Study Day of Visit,Timing,Num,
sdtmig,3-1-2,LB,LBDTC,Exp,38,Date/Time of Specimen Collection,Timing,Char,
sdtmig,3-1-2,LB,LBENDTC,Perm,39,End Date/Time of Specimen Collection,Timing,Char,
sdtmig,3-1-2,LB,LBDY,Perm,40,Study Day of Specimen Collection,Timing,Num,
sdtmig,3-1-2,LB,LBTPT,Perm,41,Planned Time Point Name,Timing,Char,
sdtmig,3-1-2,LB,LBTPTNUM,Perm,42,Planned Time Point Number,Timing,Num,
sdtmig,3-1-2,LB,LBELTM,Perm,43,Planned Elapsed Time from Time Point Ref,Timing,Char,
sdtmig,3-1-2,LB,LBTPTREF,Perm,44,Time Point Reference,Timing,Char,
sdtmig,3-1-2,LB,LBRFTDTC,Perm,45,Date/Time of Reference Time Point,Timing,Char,
sdtmig,3-1-2,PE,STUDYID,Req,1,Study Identifier,Identifier,Char,
sdtmig,3-1-2,PE,DOMAIN,Req,2,Domain Abbreviation,Identifier,Char,
sdtmig,3-1-2,PE,USUBJID,Req,3,Unique Subject Identifier,Identifier,Char,
sdtmig,3-1-2,PE,PESEQ,Req,4,Sequence Number,Identifier,Num,
sdtmig,3-1-2,PE,PEGRPID,Perm,5,Group ID,Identifier,Char,
sdtmig,3-1-2,PE,PESPID,Perm,6,Sponsor-Defined Identifier,Identifier,Char,
sdtmig,3-1-2,PE,PETESTCD,Req,7,Body System Examined Short Name,Topic,Char,
sdtmig,3-1-2,PE,PETEST,Req,8,Body System Examined,Synonym Qualifier,Char,
sdtmig,3-1-2,PE,PEMODIFY,Perm,9,Modified Reported Term,Synonym Qualifier,Char,
sdtmig,3-1-2,PE,PECAT,Perm,10,Category for Examination,Grouping Qualifier,Char,
sdtmig,3-1-2,PE,PESCAT,Perm,11,Subcategory for Examination,Grouping Qualifier,Char,
sdtmig,3-1-2,PE,PEBODSYS,Perm,12,Body System or Organ Class,Result Qualifier,Char,
sdtmig,3-1-2,PE,PEORRES,Exp,13,Verbatim Examination Finding,Result Qualifier,Char,
sdtmig,3-1-2,PE,PEORRESU,Perm,14,Original Units,Variable Qualifier,Char,C71620
sdtmig,3-1-2,PE,PESTRESC,Exp,15,Character Result/Finding in Std Format,Result Qualifier,Char,
sdtmig,3-1-2,PE,PESTAT,Perm,16,Completion Status,Record Qualifier,Char,C66789
sdtmig,3-1-2,PE,PEREASND,Perm,17,Reason Not Examined,Record Qualifier,Char,
sdtmig,3-1-2,PE,PELOC,Perm,18,Location of Physical Exam Finding,Record Qualifier,Char,C74456
sdtmig,3-1-2,PE,PEMETHOD,Perm,19,Method of Test or Examination,Record Qualifier,Char,
sdtmig,3-1-2,PE,PEEVAL,Perm,20,Evaluator,Record Qualifier,Char,
sdtmig,3-1-2,PE,VISITNUM,Exp,21,Visit Number,Timing,Num,
sdtmig,3-1-2,PE,VISIT,Perm,22,Visit Name,Timing,Char,
sdtmig,3-1-2,PE,VISITDY,Perm,23,Planned Study Day of Visit,Timing,Num,
sdtmig,3-1-2,PE,PEDTC,Exp,24,Date/Time of Examination,Timing,Char,
sdtmig,3-1-2,PE,PEDY,Perm,25,Study Day of Examination,Timing,Num,
sdtmig,3-1-2,QS,STUDYID,Req,1,Study Identifier,Identifier,Char,
sdtmig,3-1-2,QS,DOMAIN,Req,2,Domain Abbreviation,Identifier,Char,
sdtmig,3-1-2,QS,USUBJID,Req,3,Unique Subject Identifier,Identifier,Char,
sdtmig,3-1-2,QS,QSSEQ,Req,4,Sequence Number,Identifier,Num,
sdtmig,3-1-2,QS,QSGRPID,Perm,5,Group ID,Identifier,Char,
sdtmig,3-1-2,QS,QSSPID,Perm,6,Sponsor-Defined Identifier,Identifier,Char,
sdtmig,3-1-2,QS,QSTESTCD,Req,7,Question Short Name,Topic,Char,
sdtmig,3-1-2,QS,QSTEST,Req,8,Question Name,Synonym Qualifier,Char,
sdtmig,3-1-2,QS,QSCAT,Req,9,Category of Question,Grouping Qualifier,Char,
sdtmig,3-1-2,QS,QSSCAT,Perm,10,Subcategory for Question,Grouping Qualifier,Char,
sdtmig,3-1-2,QS,QSORRES,Exp,11,Finding in Original Units,Result Qualifier,Char,
sdtmig,3-1-2,QS,QSORRESU,Perm,12,Original Units,Variable Qualifier,Char,C71620
sdtmig,3-1-2,QS,QSSTRESC,Exp,13,Character Result/Finding in Std Format,Result Qualifier,Char,
sdtmig,3-1-2,QS,QSSTRESN,Perm,14,Numeric Finding in Standard Units,Result Qualifier,Num,
sdtmig,3-1-2,QS,QSSTRESU,Perm,15,Standard Units,Variable Qualifier,Char,C71620
sdtmig,3-1-2,QS,QSSTAT,Perm,16,Completion Status,Record Qualifier,Char,C66789
sdtmig,3-1-2,QS,QSREASND,Perm,17,Reason Not Performed,Record Qualifier,Char,
sdtmig,3-1-2,QS,QSBLFL,Exp,18,Baseline Flag,Record Qualifier,Char,C66742
sdtmig,3-1-2,QS,QSDRVFL,Perm,19,Derived Flag,Record Qualifier,Char,C66742
sdtmig,3-1-2,QS,VISITNUM,Exp,20,Visit Number,Timing,Num,
sdtmig,3-1-2,QS,VISIT,Perm,21,Visit Name,Timing,Char,
sdtmig,3-1-2,QS,VISITDY,Perm,22,Planned Study Day of Visit,Timing,Num,
sdtmig,3-1-2,QS,QSDTC,Exp,23,Date/Time of Finding,Timing,Char,
sdtmig,3-1-2,QS,QSDY,Perm,24,Study Day of Finding,Timing,Num,
sdtmig,3-1-2,QS,QSTPT,Perm,25,Planned Time Point Name,Timing,Char,
sdtmig,3-1-2,QS,QSTPTNUM,Perm,26,Planned Time Point Number,Timing,Num,
sdtmig,3-1-2,QS,QSELTM,Perm,27,Planned Elapsed Time from Time Point Ref,Timing,Char,
sdtmig,3-1-2,QS,QSTPTREF,Perm,28,Time Point Reference,Timing,Char,
sdtmig,3-1-2,QS,QSRFTDTC,Perm,29,Date/Time of Reference Time Point,Timing,Char,
sdtmig,3-1-2,QS,QSEVLINT,Perm,30,Evaluation Interval,Timing,Char,
sdtmig,3-1-2,SC,STUDYID,Req,1,Study Identifier,Identifier,Char,
sdtmig,3-1-2,SC,DOMAIN,Req,2,Domain Abbreviation,Identifier,Char,
sdtmig,3-1-2,SC,USUBJID,Req,3,Unique Subject Identifier,Identifier,Char,
sdtmig,3-1-2,SC,SCSEQ,Req,4,Sequence Number,Identifier,Num,
sdtmig,3-1-2,SC,SCGRPID,Perm,5,Group ID,Identifier,Char,
sdtmig,3-1-2,SC,SCSPID,Perm,6,Sponsor-Defined Identifier,Identifier,Char,
sdtmig,3-1-2,SC,SCTESTCD,Req,7,Subject Characteristic Short Name,Topic,Char,C103330
sdtmig,3-1-2,SC,SCTEST,Req,8,Subject Characteristic,Synonym Qualifier,Char,
sdtmig,3-1-2,SC,SCCAT,Perm,9,Category for Subject Characteristic,Grouping Qualifier,Char,
sdtmig,3-1-2,SC,SCSCAT,Perm,10,Subcategory for Subject Characteristic,Grouping Qualifier,Char,
sdtmig,3-1-2,SC,SCORRES,Exp,11,Result or Finding in Original Units,Result Qualifier,Char,
sdtmig,3-1-2,SC,SCORRESU,Perm,12,Original Units,Variable Qualifier,Char,C71620
sdtmig,3-1-2,SC,SCSTRESC,Exp,13,Character Result/Finding in Std Format,Result Qualifier,Char,
sdtmig,3-1-2,SC,SCSTRESN,Perm,14,Numeric Result/Finding in Standard Units,Result Qualifier,Num,
sdtmig,3-1-2,SC,SCSTRESU,Perm,15,Standard Units,Variable Qualifier,Char,C71620
sdtmig,3-1-2,SC,SCSTAT,Perm,16,Completion Status,Record Qualifier,Char,C66789
sdtmig,3-1-2,SC,SCREASND,Perm,17,Reason Not Performed,Record Qualifier,Char,
sdtmig,3-1-2,SC,SCDTC,Perm,18,Date/Time of Collection,Timing,Char,
sdtmig,3-1-2,SC,SCDY,Perm,19,Study Day of Examination,Timing,Num,
sdtmig,3-1-2,VS,STUDYID,Req,1,Study Identifier,Identifier,Char,
sdtmig,3-1-2,VS,DOMAIN,Req,2,Domain Abbreviation,Identifier,Char,
sdtmig,3-1-2,VS,USUBJID,Req,3,Unique Subject Identifier,Identifier,Char,
sdtmig,3-1-2,VS,VSSEQ,Req,4,Sequence Number,Identifier,Num,
sdtmig,3-1-2,VS,VSGRPID,Perm,5,Group ID,Identifier,Char,
sdtmig,3-1-2,VS,VSSPID,Perm,6,Sponsor-Defined Identifier,Identifier,Char,
sdtmig,3-1-2,VS,VSTESTCD,Req,7,Vital Signs Test Short Name,Topic,Char,C66741
sdtmig,3-1-2,VS,VSTEST,Req,8,Vital Signs Test Name,Synonym Qualifier,Char,C67153
sdtmig,3-1-2,VS,VSCAT,Perm,9,Category for Vital Signs,Grouping Qualifier,Char,
sdtmig,3-1-2,VS,VSSCAT,Perm,10,Subcategory for Vital Signs,Grouping Qualifier,Char,
sdtmig,3-1-2,VS,VSPOS,Perm,11,Vital Signs Position of Subject,Record Qualifier,Char,C71148
sdtmig,3-1-2,VS,VSORRES,Exp,12,Result or Finding in Original Units,Result Qualifier,Char,
sdtmig,3-1-2,VS,VSORRESU,Exp,13,Original Units,Variable Qualifier,Char,C66770
sdtmig,3-1-2,VS,VSSTRESC,Exp,14,Character Result/Finding in Std Format,Result Qualifier,Char,
sdtmig,3-1-2,VS,VSSTRESN,Exp,15,Numeric Result/Finding in Standard Units,Result Qualifier,Num,
sdtmig,3-1-2,VS,VSSTRESU,Exp,16,Standard Units,Variable Qualifier,Char,C66770
sdtmig,3-1-2,VS,VSSTAT,Perm,17,Completion Status,Record Qualifier,Char,C66789
sdtmig,3-1-2,VS,VSREASND,Perm,18,Reason Not Performed,Record Qualifier,Char,
sdtmig,3-1-2,VS,VSLOC,Perm,19,Location of Vital Signs Measurement,Record Qualifier,Char,C74456
sdtmig,3-1-2,VS,VSBLFL,Exp,20,Baseline Flag,Record Qualifier,Char,C66742
sdtmig,3-1-2,VS,VSDRVFL,Perm,21,Derived Flag,Record Qualifier,Char,C66742
sdtmig,3-1-2,VS,VISITNUM,Exp,22,Visit Number,Timing,Num,
sdtmig,3-1-2,VS,VISIT,Perm,23,Visit Name,Timing,Char,
sdtmig,3-1-2,VS,VISITDY,Perm,24,Planned Study Day of Visit,Timing,Num,
sdtmig,3-1-2,VS,VSDTC,Exp,25,Date/Time of Measurements,Timing,Char,
sdtmig,3-1-2,VS,VSDY,Perm,26,Study Day of Vital Signs,Timing,Num,
sdtmig,3-1-2,VS,VSTPT,Perm,27,Planned Time Point Name,Timing,Char,
sdtmig,3-1-2,VS,VSTPTNUM,Perm,28,Planned Time Point Number,Timing,Num,
sdtmig,3-1-2,VS,VSELTM,Perm,29,Planned Elapsed Time from Time Point Ref,Timing,Char,
sdtmig,3-1-2,VS,VSTPTREF,Perm,30,Time Point Reference,Timing,Char,
sdtmig,3-1-2,VS,VSRFTDTC,Perm,31,Date/Time of Reference Time Point,Timing,Char,
sdtmig,3-1-2,DA,STUDYID,Req,1,Study Identifier,Identifier,Char,
sdtmig,3-1-2,DA,DOMAIN,Req,2,Domain Abbreviation,Identifier,Char,
sdtmig,3-1-2,DA,USUBJID,Req,3,Unique Subject Identifier,Identifier,Char,
sdtmig,3-1-2,DA,DASEQ,Req,4,Sequence Number,Identifier,Num,
sdtmig,3-1-2,DA,DAGRPID,Perm,5,Group ID,Identifier,Char,
sdtmig,3-1-2,DA,DAREFID,Perm,6,Reference ID,Identifier,Char,
sdtmig,3-1-2,DA,DASPID,Perm,7,Sponsor-Defined Identifier,Identifier,Char,
sdtmig,3-1-2,DA,DATESTCD,Req,8,Short Name of Accountability Assessment,Topic,Char,
sdtmig,3-1-2,DA,DATEST,Req,9,Name of Accountability Assessment,Synonym Qualifier,Char,
sdtmig,3-1-2,DA,DACAT,Perm,10,Category of Assessment,Grouping Qualifier,Char,
sdtmig,3-1-2,DA,DASCAT,Perm,11,Subcategory of Assessment,Grouping Qualifier,Char,
sdtmig,3-1-2,DA,DAORRES,Exp,12,Assessment Result in Original Units,Result Qualifier,Char,
sdtmig,3-1-2,DA,DAORRESU,Perm,13,Original Units,Variable Qualifier,Char,C71620
sdtmig,3-1-2,DA,DASTRESC,Exp,14,Assessment Result in Std Format,Result Qualifier,Char,
sdtmig,3-1-2,DA,DASTRESN,Perm,15,Numeric Result/Finding in Standard Units,Result Qualifier,Num,
sdtmig,3-1-2,DA,DASTRESU,Perm,16,Assessment Standard Units,Variable Qualifier,Char,C71620
sdtmig,3-1-2,DA,DASTAT,Perm,17,Completion Status,Record Qualifier,Char,C66789
sdtmig,3-1-2,DA,DAREASND,Perm,18,Reason Not Performed,Record Qualifier,Char,
sdtmig,3-1-2,DA,VISITNUM,Exp,19,Visit Number,Timing,Num,
sdtmig,3-1-2,DA,VISIT,Perm,20,Visit Name,Timing,Char,
sdtmig,3-1-2,DA,VISITDY,Perm,21,Planned Study Day of Visit,Timing,Num,
sdtmig,3-1-2,DA,DADTC,Exp,22,Date/Time of Accountability Assessment,Timing,Char,
sdtmig,3-1-2,DA,DADY,Perm,23,Study Day of Accountability Assessment,Timing,Num,
sdtmig,3-1-2,MB,STUDYID,Req,1,Study Identifier,Identifier,Char,
sdtmig,3-1-2,MB,DOMAIN,Req,2,Domain Abbreviation,Identifier,Char,
sdtmig,3-1-2,MB,USUBJID,Req,3,Unique Subject Identifier,Identifier,Char,
sdtmig,3-1-2,MB,MBSEQ,Req,4,Sequence Number,Identifier,Num,
sdtmig,3-1-2,MB,MBGRPID,Exp,5,Group ID,Identifier,Char,
sdtmig,3-1-2,MB,MBREFID,Perm,6,Reference ID,Identifier,Char,
sdtmig,3-1-2,MB,MBSPID,Perm,7,Sponsor-Defined Identifier,Identifier,Char,
sdtmig,3-1-2,MB,MBTESTCD,Req,8,Microbiology Test or Finding Short Name,Topic,Char,
sdtmig,3-1-2,MB,MBTEST,Req,9,Microbiology Test or Finding Name,Synonym Qualifier,Char,
sdtmig,3-1-2,MB,MBCAT,Perm,10,Category for Microbiology Finding,Grouping Qualifier,Char,
sdtmig,3-1-2,MB,MBSCAT,Perm,11,Subcategory for Microbiology Finding,Grouping Qualifier,Char,
sdtmig,3-1-2,MB,MBORRES,Exp,12,Result or Finding in Original Units,Result Qualifier,Char,
sdtmig,3-1-2,MB,MBORRESU,Perm,13,Original Units,Variable Qualifier,Char,C71620
sdtmig,3-1-2,MB,MBSTRESC,Exp,14,Character Result/Finding in Std Format,Result Qualifier,Char,
sdtmig,3-1-2,MB,MBSTRESN,Perm,15,Numeric Result/Finding in Standard Units,Result Qualifier,Num,
sdtmig,3-1-2,MB,MBSTRESU,Perm,16,Standard Units,Variable Qualifier,Char,C71620
sdtmig,3-1-2,MB,MBRESCAT,Exp,17,Result Category,Variable Qualifier,Char,
sdtmig,3-1-2,MB,MBSTAT,Perm,18,Completion Status,Record Qualifier,Char,C66789
sdtmig,3-1-2,MB,MBREASND,Perm,19,Reason Microbiology Not Performed,Record Qualifier,Char,
sdtmig,3-1-2,MB,MBNAM,Perm,20,Vendor Name,Record Qualifier,Char,
sdtmig,3-1-2,MB,MBLOINC,Perm,21,LOINC Code,Synonym Qualifier,Char,
sdtmig,3-1-2,MB,MBSPEC,Perm,22,Specimen Type,Record Qualifier,Char,
sdtmig,3-1-2,MB,MBSPCCND,Perm,23,Specimen Condition,Record Qualifier,Char,
sdtmig,3-1-2,MB,MBLOC,Perm,24,Specimen Collection Location,Record Qualifier,Char,C74456
sdtmig,3-1-2,MB,MBMETHOD,Exp,25,Method of Test or Examination,Record Qualifier,Char,
sdtmig,3-1-2,MB,MBBLFL,Perm,26,Baseline Flag,Record Qualifier,Char,C66742
sdtmig,3-1-2,MB,MBDRVFL,Perm,27,Derived Flag,Record Qualifier,Char,C66742
sdtmig,3-1-2,MB,VISITNUM,Exp,28,Visit Number,Timing,Num,
sdtmig,3-1-2,MB,VISIT,Perm,29,Visit Name,Timing,Char,
sdtmig,3-1-2,MB,VISITDY,Perm,30,Planned Study Day of Visit,Timing,Num,
sdtmig,3-1-2,MB,MBDTC,Exp,31,Date/Time of Specimen Collection,Timing,Char,
sdtmig,3-1-2,MB,MBDY,Perm,32,Study Day of MB Specimen Collection,Timing,Num,
sdtmig,3-1-2,MB,MBTPT,Perm,33,Planned Time Point Name,Timing,Char,
sdtmig,3-1-2,MB,MBTPTNUM,Perm,34,Planned Time Point Number,Timing,Num,
sdtmig,3-1-2,MB,MBELTM,Perm,35,Planned Elapsed Time from Time Point Ref,Timing,Char,
sdtmig,3-1-2,MB,MBTPTREF,Perm,36,Time Point Reference,Timing,Char,
sdtmig,3-1-2,MB,MBRFTDTC,Perm,37,Date/Time of Reference Time Point,Timing,Char,
sdtmig,3-1-2,MS,STUDYID,Req,1,Study Identifier,Identifier,Char,
sdtmig,3-1-2,MS,DOMAIN,Req,2,Domain Abbreviation,Identifier,Char,
sdtmig,3-1-2,MS,USUBJID,Req,3,Unique Subject Identifier,Identifier,Char,
sdtmig,3-1-2,MS,MSSEQ,Req,4,Sequence Number,Identifier,Num,
sdtmig,3-1-2,MS,MSGRPID,Req,5,Group ID,Identifier,Char,
sdtmig,3-1-2,MS,MSREFID,Perm,6,Reference ID,Identifier,Char,
sdtmig,3-1-2,MS,MSSPID,Perm,7,Sponsor-Defined Identifier,Identifier,Char,
sdtmig,3-1-2,MS,MSTESTCD,Req,8,Microbiology Organism Finding Short Name,Topic,Char,
sdtmig,3-1-2,MS,MSTEST,Req,9,Organism Test or Finding Name,Synonym Qualifier,Char,
sdtmig,3-1-2,MS,MSCAT,Req,10,Category for Organism Findings,Grouping Qualifier,Char,
sdtmig,3-1-2,MS,MSSCAT,Perm,11,Subcategory for Organism Findings,Grouping Qualifier,Char,
sdtmig,3-1-2,MS,MSORRES,Exp,12,Result or Finding in Original Units,Result Qualifier,Char,
sdtmig,3-1-2,MS,MSORRESU,Exp,13,Original Units,Variable Qualifier,Char,C71620
sdtmig,3-1-2,MS,MSSTRESC,Exp,14,Character Result/Finding in Std Format,Result Qualifier,Char,
sdtmig,3-1-2,MS,MSSTRESN,Exp,15,Numeric Result/Finding in Standard Units,Result Qualifier,Num,
sdtmig,3-1-2,MS,MSSTRESU,Exp,16,Standard Units,Variable Qualifier,Char,C71620
