version,domain,variable,core,ordinal
3.1.2,DM,STUDYID,Req,1
3.1.2,DM,DOMAIN,Req,2
3.1.2,DM,USUBJID,Req,3
3.1.2,DM,SUBJID,Req,4
3.1.2,DM,RFSTDTC,Exp,5
3.1.2,DM,RFENDTC,Exp,6
3.1.2,DM,SITEID,Req,7
3.1.2,DM,INVID,Perm,8
3.1.2,DM,INVNAM,Perm,9
3.1.2,DM,BRTHDTC,Perm,10
3.1.2,DM,AGE,Exp,11
3.1.2,DM,AGEU,Exp,12
3.1.2,DM,SEX,Req,13
3.1.2,DM,RACE,Exp,14
3.1.2,DM,ETHNIC,Perm,15
3.1.2,DM,ARMCD,Req,16
3.1.2,DM,ARM,Req,17
3.1.2,DM,COUNTRY,Req,18
3.1.2,DM,DMDTC,Perm,19
3.1.2,DM,DMDY,Perm,20
3.1.2,CO,STUDYID,Req,1
3.1.2,CO,DOMAIN,Req,2
3.1.2,CO,RDOMAIN,Perm,3
3.1.2,CO,USUBJID,Req,4
3.1.2,CO,COSEQ,Req,5
3.1.2,CO,IDVAR,Perm,6
3.1.2,CO,IDVARVAL,Perm,7
3.1.2,CO,COREF,Perm,8
3.1.2,CO,COVAL,Req,9
3.1.2,CO,COEVAL,Perm,10
3.1.2,CO,CODTC,Perm,11
3.1.2,SE,STUDYID,Req,1
3.1.2,SE,DOMAIN,Req,2
3.1.2,SE,USUBJID,Req,3
3.1.2,SE,SESEQ,Req,4
3.1.2,SE,ETCD,Req,5
3.1.2,SE,ELEMENT,Perm,6
3.1.2,SE,SESTDTC,Req,7
3.1.2,SE,SEENDTC,Exp,8
3.1.2,SE,TAETORD,Perm,9
3.1.2,SE,EPOCH,Perm,10
3.1.2,SE,SEUPDES,Perm,11
3.1.2,SV,STUDYID,Req,1
3.1.2,SV,DOMAIN,Req,2
3.1.2,SV,USUBJID,Req,3
3.1.2,SV,VISITNUM,Req,4
3.1.2,SV,VISIT,Perm,5
3.1.2,SV,VISITDY,Perm,6
3.1.2,SV,SVSTDTC,Exp,7
3.1.2,SV,SVENDTC,Exp,8
3.1.2,SV,SVSTDY,Perm,9
3.1.2,SV,SVENDY,Perm,10
3.1.2,SV,SVUPDES,Perm,11
3.1.2,CM,STUDYID,Req,1
3.1.2,CM,DOMAIN,Req,2
3.1.2,CM,USUBJID,Req,3
3.1.2,CM,CMSEQ,Req,4
3.1.2,CM,CMGRPID,Perm,5
3.1.2,CM,CMSPID,Perm,6
3.1.2,CM,CMTRT,Req,7
3.1.2,CM,CMMODIFY,Perm,8
3.1.2,CM,CMDECOD,Perm,9
3.1.2,CM,CMCAT,Perm,10
3.1.2,CM,CMSCAT,Perm,11
3.1.2,CM,CMPRESP,Perm,12
3.1.2,CM,CMOCCUR,Perm,13
3.1.2,CM,CMSTAT,Perm,14
3.1.2,CM,CMREASND,Perm,15
3.1.2,CM,CMINDC,Perm,16
3.1.2,CM,CMCLAS,Perm,17
3.1.2,CM,CMCLASCD,Perm,18
3.1.2,CM,CMDOSE,Perm,19
3.1.2,CM,CMDOSTXT,Perm,20
3.1.2,CM,CMDOSU,Perm,21
3.1.2,CM,CMDOSFRM,Perm,22
3.1.2,CM,CMDOSFRQ,Perm,23
3.1.2,CM,CMDOSTOT,Perm,24
3.1.2,CM,CMDOSRGM,Perm,25
3.1.2,CM,CMROUTE,Perm,26
3.1.2,CM,CMSTDTC,Perm,27
3.1.2,CM,CMENDTC,Perm,28
3.1.2,CM,CMSTDY,Perm,29
3.1.2,CM,CMENDY,Perm,30
3.1.2,CM,CMDUR,Perm,31
3.1.2,CM,CMSTRF,Perm,32
3.1.2,CM,CMENRF,Perm,33
3.1.2,CM,CMSTRTPT,Perm,34
3.1.2,CM,CMSTTPT,Perm,35
3.1.2,CM,CMENRTPT,Perm,36
3.1.2,CM,CMENTPT,Perm,37
3.1.2,EX,STUDYID,Req,1
3.1.2,EX,DOMAIN,Req,2
3.1.2,EX,USUBJID,Req,3
3.1.2,EX,EXSEQ,Req,4
3.1.2,EX,EXGRPID,Perm,5
3.1.2,EX,EXSPID,Perm,6
3.1.2,EX,EXTRT,Req,7
3.1.2,EX,EXCAT,Perm,8
3.1.2,EX,EXSCAT,Perm,9
3.1.2,EX,EXDOSE,Exp,10
3.1.2,EX,EXDOSTXT,Perm,11
3.1.2,EX,EXDOSU,Exp,12
3.1.2,EX,EXDOSFRM,Exp,13
3.1.2,EX,EXDOSFRQ,Perm,14
3.1.2,EX,EXDOSTOT,Perm,15
3.1.2,EX,EXDOSRGM,Perm,16
3.1.2,EX,EXROUTE,Perm,17
3.1.2,EX,EXLOT,Perm,18
3.1.2,EX,EXLOC,Perm,19
3.1.2,EX,EXTRTV,Perm,20
3.1.2,EX,EXVAMT,Perm,21
3.1.2,EX,EXVAMTU,Perm,22
3.1.2,EX,EXADJ,Perm,23
3.1.2,EX,TAETORD,Perm,24
3.1.2,EX,EPOCH,Perm,25
3.1.2,EX,EXSTDTC,Exp,26
3.1.2,EX,EXENDTC,Perm,27
3.1.2,EX,EXSTDY,Perm,28
3.1.2,EX,EXENDY,Perm,29
3.1.2,EX,EXDUR,Perm,30
3.1.2,EX,EXTPT,Perm,31
3.1.2,EX,EXTPTNUM,Perm,32
3.1.2,EX,EXELTM,Perm,33
3.1.2,EX,EXTPTREF,Perm,34
3.1.2,SU,STUDYID,Req,1
3.1.2,SU,DOMAIN,Req,2
3.1.2,SU,USUBJID,Req,3
3.1.2,SU,SUSEQ,Req,4
3.1.2,SU,SUGRPID,Perm,5
3.1.2,SU,SUSPID,Perm,6
3.1.2,SU,SUTRT,Req,7
3.1.2,SU,SUMODIFY,Perm,8
3.1.2,SU,SUDECOD,Perm,9
3.1.2,SU,SUCAT,Perm,10
3.1.2,SU,SUSCAT,Perm,11
3.1.2,SU,SUPRESP,Perm,12
3.1.2,SU,SUOCCUR,Perm,13
3.1.2,SU,SUSTAT,Perm,14
3.1.2,SU,SUREASND,Perm,15
3.1.2,SU,SUCLAS,Perm,16
3.1.2,SU,SUCLASCD,Perm,17
3.1.2,SU,SUDOSE,Perm,18
3.1.2,SU,SUDOSTXT,Perm,19
3.1.2,SU,SUDOSU,Perm,20
3.1.2,SU,SUDOSFRM,Perm,21
3.1.2,SU,SUDOSFRQ,Perm,22
3.1.2,SU,SUDOSTOT,Perm,23
3.1.2,SU,SUROUTE,Perm,24
3.1.2,SU,SUSTDTC,Perm,25
3.1.2,SU,SUENDTC,Perm,26
3.1.2,SU,SUSTDY,Perm,27
3.1.2,SU,SUENDY,Perm,28
3.1.2,SU,SUDUR,Perm,29
3.1.2,SU,SUSTRF,Perm,30
3.1.2,SU,SUENRF,Perm,31
3.1.2,SU,SUSTRTPT,Perm,32
3.1.2,SU,SUSTTPT,Perm,33
3.1.2,SU,SUENRTPT,Perm,34
3.1.2,SU,SUENTPT,Perm,35
3.1.2,AE,STUDYID,Req,1
3.1.2,AE,DOMAIN,Req,2
3.1.2,AE,USUBJID,Req,3
3.1.2,AE,AESEQ,Req,4
3.1.2,AE,AEGRPID,Perm,5
3.1.2,AE,AEREFID,Perm,6
3.1.2,AE,AESPID,Perm,7
3.1.2,AE,AETERM,Req,8
3.1.2,AE,AEMODIFY,Perm,9
3.1.2,AE,AEDECOD,Req,10
3.1.2,AE,AECAT,Perm,11
3.1.2,AE,AESCAT,Perm,12
3.1.2,AE,AEPRESP,Perm,13
3.1.2,AE,AEBODSYS,Exp,14
3.1.2,AE,AELOC,Perm,15
3.1.2,AE,AESEV,Perm,16
3.1.2,AE,AESER,Exp,17
3.1.2,AE,AEACN,Exp,18
3.1.2,AE,AEACNOTH,Perm,19
3.1.2,AE,AEREL,Exp,20
3.1.2,AE,AERELNST,Perm,21
3.1.2,AE,AEPATT,Perm,22
3.1.2,AE,AEOUT,Perm,23
3.1.2,AE,AESCAN,Perm,24
3.1.2,AE,AESCONG,Perm,25
3.1.2,AE,AESDISAB,Perm,26
3.1.2,AE,AESDTH,Perm,27
3.1.2,AE,AESHOSP,Perm,28
3.1.2,AE,AESLIFE,Perm,29
3.1.2,AE,AESOD,Perm,30
3.1.2,AE,AESMIE,Perm,31
3.1.2,AE,AECONTRT,Perm,32
3.1.2,AE,AETOXGR,Perm,33
3.1.2,AE,AESTDTC,Exp,34
3.1.2,AE,AEENDTC,Exp,35
3.1.2,AE,AESTDY,Perm,36
3.1.2,AE,AEENDY,Perm,37
3.1.2,AE,AEDUR,Perm,38
3.1.2,AE,AEENRF,Perm,39
3.1.2,AE,AEENRTPT,Perm,40
3.1.2,AE,AEENTPT,Perm,41
3.1.2,DS,STUDYID,Req,1
3.1.2,DS,DOMAIN,Req,2
3.1.2,DS,USUBJID,Req,3
3.1.2,DS,DSSEQ,Req,4
3.1.2,DS,DSGRPID,Perm,5
3.1.2,DS,DSREFID,Perm,6
3.1.2,DS,DSSPID,Perm,7
3.1.2,DS,DSTERM,Req,8
3.1.2,DS,DSDECOD,Req,9
3.1.2,DS,DSCAT,Exp,10
3.1.2,DS,DSSCAT,Perm,11
3.1.2,DS,EPOCH,Perm,12
3.1.2,DS,DSDTC,Perm,13
3.1.2,DS,DSSTDTC,Exp,14
3.1.2,DS,DSSTDY,Perm,15
3.1.2,MH,STUDYID,Req,1
3.1.2,MH,DOMAIN,Req,2
3.1.2,MH,USUBJID,Req,3
3.1.2,MH,MHSEQ,Req,4
3.1.2,MH,MHGRPID,Perm,5
3.1.2,MH,MHREFID,Perm,6
3.1.2,MH,MHSPID,Perm,7
3.1.2,MH,MHTERM,Req,8
3.1.2,MH,MHMODIFY,Perm,9
3.1.2,MH,MHDECOD,Perm,10
3.1.2,MH,MHCAT,Perm,11
3.1.2,MH,MHSCAT,Perm,12
3.1.2,MH,MHPRESP,Perm,13
3.1.2,MH,MHOCCUR,Perm,14
3.1.2,MH,MHSTAT,Perm,15
3.1.2,MH,MHREASND,Perm,16
3.1.2,MH,MHBODSYS,Perm,17
3.1.2,MH,MHDTC,Perm,18
3.1.2,MH,MHSTDTC,Perm,19
3.1.2,MH,MHENDTC,Perm,20
3.1.2,MH,MHDY,Perm,21
3.1.2,MH,MHENRF,Perm,22
3.1.2,MH,MHENRTPT,Perm,23
3.1.2,MH,MHENTPT,Perm,24
3.1.2,DV,STUDYID,Req,1
3.1.2,DV,DOMAIN,Req,2
3.1.2,DV,USUBJID,Req,3
3.1.2,DV,DVSEQ,Req,4
3.1.2,DV,DVREFID,Perm,5
3.1.2,DV,DVSPID,Perm,6
3.1.2,DV,DVTERM,Req,7
3.1.2,DV,DVDECOD,Perm,8
3.1.2,DV,DVCAT,Perm,9
3.1.2,DV,DVSCAT,Perm,10
3.1.2,DV,EPOCH,Perm,11
3.1.2,DV,DVSTDTC,Perm,12
3.1.2,DV,DVENDTC,Perm,13
3.1.2,CE,STUDYID,Req,1
3.1.2,CE,DOMAIN,Req,2
3.1.2,CE,USUBJID,Req,3
3.1.2,CE,CESEQ,Req,4
3.1.2,CE,CEGRPID,Perm,5
3.1.2,CE,CEREFID,Perm,6
3.1.2,CE,CESPID,Perm,7
3.1.2,CE,CETERM,Req,8
3.1.2,CE,CEDECOD,Perm,9
3.1.2,CE,CECAT,Perm,10
3.1.2,CE,CESCAT,Perm,11
3.1.2,CE,CEPRESP,Perm,12
3.1.2,CE,CEOCCUR,Perm,13
3.1.2,CE,CESTAT,Perm,14
3.1.2,CE,CEREASND,Perm,15
3.1.2,CE,CEBODSYS,Perm,16
3.1.2,CE,CESEV,Perm,17
3.1.2,CE,CEDTC,Perm,18
3.1.2,CE,CESTDTC,Perm,19
3.1.2,CE,CEENDTC,Perm,20
3.1.2,CE,CEDY,Perm,21
3.1.2,CE,CESTRF,Perm,22
3.1.2,CE,CEENRF,Perm,23
3.1.2,CE,CESTRTPT,Perm,24
3.1.2,CE,CESTTPT,Perm,25
3.1.2,CE,CEENRTPT,Perm,26
3.1.2,CE,CEENTPT,Perm,27
3.1.2,EG,STUDYID,Req,1
3.1.2,EG,DOMAIN,Req,2
3.1.2,EG,USUBJID,Req,3
3.1.2,EG,EGSEQ,Req,4
3.1.2,EG,EGGRPID,Perm,5
3.1.2,EG,EGREFID,Perm,6
3.1.2,EG,EGSPID,Perm,7
3.1.2,EG,EGTESTCD,Req,8
3.1.2,EG,EGTEST,Req,9
3.1.2,EG,EGCAT,Perm,10
3.1.2,EG,EGSCAT,Perm,11
3.1.2,EG,EGPOS,Perm,12
3.1.2,EG,EGORRES,Exp,13
3.1.2,EG,EGORRESU,Perm,14
3.1.2,EG,EGSTRESC,Exp,15
3.1.2,EG,EGSTRESN,Perm,16
3.1.2,EG,EGSTRESU,Perm,17
3.1.2,EG,EGSTAT,Perm,18
3.1.2,EG,EGREASND,Perm,19
3.1.2,EG,EGXFN,Perm,20
3.1.2,EG,EGNAM,Perm,21
3.1.2,EG,EGLOC,Perm,22
3.1.2,EG,EGMETHOD,Perm,23
3.1.2,EG,EGBLFL,Exp,24
3.1.2,EG,EGDRVFL,Perm,25
3.1.2,EG,EGEVAL,Perm,26
3.1.2,EG,VISITNUM,Exp,27
3.1.2,EG,VISIT,Perm,28
3.1.2,EG,VISITDY,Perm,29
3.1.2,EG,EGDTC,Exp,30
3.1.2,EG,EGDY,Perm,31
3.1.2,EG,EGTPT,Perm,32
3.1.2,EG,EGTPTNUM,Perm,33
3.1.2,EG,EGELTM,Perm,34
3.1.2,EG,EGTPTREF,Perm,35
3.1.2,EG,EGRFTDTC,Perm,36
3.1.2,IE,STUDYID,Req,1
3.1.2,IE,DOMAIN,Req,2
3.1.2,IE,USUBJID,Req,3
3.1.2,IE,IESEQ,Req,4
3.1.2,IE,IESPID,Perm,5
3.1.2,IE,IETESTCD,Req,6
3.1.2,IE,IETEST,Req,7
3.1.2,IE,IECAT,Req,8
3.1.2,IE,IESCAT,Perm,9
3.1.2,IE,IEORRES,Req,10
3.1.2,IE,IESTRESC,Req,11
3.1.2,IE,VISITNUM,Perm,12
3.1.2,IE,VISIT,Perm,13
3.1.2,IE,VISITDY,Perm,14
3.1.2,IE,IEDTC,Perm,15
3.1.2,IE,IEDY,Perm,16
3.1.2,LB,STUDYID,Req,1
3.1.2,LB,DOMAIN,Req,2
3.1.2,LB,USUBJID,Req,3
3.1.2,LB,LBSEQ,Req,4
3.1.2,LB,LBGRPID,Perm,5
3.1.2,LB,LBREFID,Perm,6
3.1.2,LB,LBSPID,Perm,7
3.1.2,LB,LBTESTCD,Req,8
3.1.2,LB,LBTEST,Req,9
3.1.2,LB,LBCAT,Exp,10
3.1.2,LB,LBSCAT,Perm,11
3.1.2,LB,LBORRES,Exp,12
3.1.2,LB,LBORRESU,Exp,13
3.1.2,LB,LBORNRLO,Exp,14
3.1.2,LB,LBORNRHI,Exp,15
3.1.2,LB,LBSTRESC,Exp,16
3.1.2,LB,LBSTRESN,Exp,17
3.1.2,LB,LBSTRESU,Exp,18
3.1.2,LB,LBSTNRLO,Exp,19
3.1.2,LB,LBSTNRHI,Exp,20
3.1.2,LB,LBSTNRC,Perm,21
3.1.2,LB,LBNRIND,Exp,22
3.1.2,LB,LBSTAT,Perm,23
3.1.2,LB,LBREASND,Perm,24
3.1.2,LB,LBNAM,Perm,25
3.1.2,LB,LBLOINC,Perm,26
3.1.2,LB,LBSPEC,Perm,27
3.1.2,LB,LBSPCCND,Perm,28
3.1.2,LB,LBMETHOD,Perm,29
3.1.2,LB,LBBLFL,Exp,30
3.1.2,LB,LBFAST,Perm,31
3.1.2,LB,LBDRVFL,Perm,32
3.1.2,LB,LBTOX,Perm,33
3.1.2,LB,LBTOXGR,Perm,34
3.1.2,LB,VISITNUM,Exp,35
3.1.2,LB,VISIT,Perm,36
3.1.2,LB,VISITDY,Perm,37
3.1.2,LB,LBDTC,Exp,38
3.1.2,LB,LBENDTC,Perm,39
3.1.2,LB,LBDY,Perm,40
3.1.2,LB,LBTPT,Perm,41
3.1.2,LB,LBTPTNUM,Perm,42
3.1.2,LB,LBELTM,Perm,43
3.1.2,LB,LBTPTREF,Perm,44
3.1.2,LB,LBRFTDTC,Perm,45
3.1.2,PE,STUDYID,Req,1
3.1.2,PE,DOMAIN,Req,2
3.1.2,PE,USUBJID,Req,3
3.1.2,PE,PESEQ,Req,4
3.1.2,PE,PEGRPID,Perm,5
3.1.2,PE,PESPID,Perm,6
3.1.2,PE,PETESTCD,Req,7
3.1.2,PE,PETEST,Req,8
3.1.2,PE,PEMODIFY,Perm,9
3.1.2,PE,PECAT,Perm,10
3.1.2,PE,PESCAT,Perm,11
3.1.2,PE,PEBODSYS,Perm,12
3.1.2,PE,PEORRES,Exp,13
3.1.2,PE,PEORRESU,Perm,14
3.1.2,PE,PESTRESC,Exp,15
3.1.2,PE,PESTAT,Perm,16
3.1.2,PE,PEREASND,Perm,17
3.1.2,PE,PELOC,Perm,18
3.1.2,PE,PEMETHOD,Perm,19
3.1.2,PE,PEEVAL,Perm,20
3.1.2,PE,VISITNUM,Exp,21
3.1.2,PE,VISIT,Perm,22
3.1.2,PE,VISITDY,Perm,23
3.1.2,PE,PEDTC,Exp,24
3.1.2,PE,PEDY,Perm,25
3.1.2,QS,STUDYID,Req,1
3.1.2,QS,DOMAIN,Req,2
3.1.2,QS,USUBJID,Req,3
3.1.2,QS,QSSEQ,Req,4
3.1.2,QS,QSGRPID,Perm,5
3.1.2,QS,QSSPID,Perm,6
3.1.2,QS,QSTESTCD,Req,7
3.1.2,QS,QSTEST,Req,8
3.1.2,QS,QSCAT,Req,9
3.1.2,QS,QSSCAT,Perm,10
3.1.2,QS,QSORRES,Exp,11
3.1.2,QS,QSORRESU,Perm,12
3.1.2,QS,QSSTRESC,Exp,13
3.1.2,QS,QSSTRESN,Perm,14
3.1.2,QS,QSSTRESU,Perm,15
3.1.2,QS,QSSTAT,Perm,16
3.1.2,QS,QSREASND,Perm,17
3.1.2,QS,QSBLFL,Exp,18
3.1.2,QS,QSDRVFL,Perm,19
3.1.2,QS,VISITNUM,Exp,20
3.1.2,QS,VISIT,Perm,21
3.1.2,QS,VISITDY,Perm,22
3.1.2,QS,QSDTC,Exp,23
3.1.2,QS,QSDY,Perm,24
3.1.2,QS,QSTPT,Perm,25
3.1.2,QS,QSTPTNUM,Perm,26
3.1.2,QS,QSELTM,Perm,27
3.1.2,QS,QSTPTREF,Perm,28
3.1.2,QS,QSRFTDTC,Perm,29
3.1.2,QS,QSEVLINT,Perm,30
3.1.2,SC,STUDYID,Req,1
3.1.2,SC,DOMAIN,Req,2
3.1.2,SC,USUBJID,Req,3
3.1.2,SC,SCSEQ,Req,4
3.1.2,SC,SCGRPID,Perm,5
3.1.2,SC,SCSPID,Perm,6
3.1.2,SC,SCTESTCD,Req,7
3.1.2,SC,SCTEST,Req,8
3.1.2,SC,SCCAT,Perm,9
3.1.2,SC,SCSCAT,Perm,10
3.1.2,SC,SCORRES,Exp,11
3.1.2,SC,SCORRESU,Perm,12
3.1.2,SC,SCSTRESC,Exp,13
3.1.2,SC,SCSTRESN,Perm,14
3.1.2,SC,SCSTRESU,Perm,15
3.1.2,SC,SCSTAT,Perm,16
3.1.2,SC,SCREASND,Perm,17
3.1.2,SC,SCDTC,Perm,18
3.1.2,SC,SCDY,Perm,19
3.1.2,VS,STUDYID,Req,1
3.1.2,VS,DOMAIN,Req,2
3.1.2,VS,USUBJID,Req,3
3.1.2,VS,VSSEQ,Req,4
3.1.2,VS,VSGRPID,Perm,5
3.1.2,VS,VSSPID,Perm,6
3.1.2,VS,VSTESTCD,Req,7
3.1.2,VS,VSTEST,Req,8
3.1.2,VS,VSCAT,Perm,9
3.1.2,VS,VSSCAT,Perm,10
3.1.2,VS,VSPOS,Perm,11
3.1.2,VS,VSORRES,Exp,12
3.1.2,VS,VSORRESU,Exp,13
3.1.2,VS,VSSTRESC,Exp,14
3.1.2,VS,VSSTRESN,Exp,15
3.1.2,VS,VSSTRESU,Exp,16
3.1.2,VS,VSSTAT,Perm,17
3.1.2,VS,VSREASND,Perm,18
3.1.2,VS,VSLOC,Perm,19
3.1.2,VS,VSBLFL,Exp,20
3.1.2,VS,VSDRVFL,Perm,21
3.1.2,VS,VISITNUM,Exp,22
3.1.2,VS,VISIT,Perm,23
3.1.2,VS,VISITDY,Perm,24
3.1.2,VS,VSDTC,Exp,25
3.1.2,VS,VSDY,Perm,26
3.1.2,VS,VSTPT,Perm,27
3.1.2,VS,VSTPTNUM,Perm,28
3.1.2,VS,VSELTM,Perm,29
3.1.2,VS,VSTPTREF,Perm,30
3.1.2,VS,VSRFTDTC,Perm,31
3.1.2,DA,STUDYID,Req,1
3.1.2,DA,DOMAIN,Req,2
3.1.2,DA,USUBJID,Req,3
3.1.2,DA,DASEQ,Req,4
3.1.2,DA,DAGRPID,Perm,5
3.1.2,DA,DAREFID,Perm,6
3.1.2,DA,DASPID,Perm,7
3.1.2,DA,DATESTCD,Req,8
3.1.2,DA,DATEST,Req,9
3.1.2,DA,DACAT,Perm,10
3.1.2,DA,DASCAT,Perm,11
3.1.2,DA,DAORRES,Exp,12
3.1.2,DA,DAORRESU,Perm,13
3.1.2,DA,DASTRESC,Exp,14
3.1.2,DA,DASTRESN,Perm,15
3.1.2,DA,DASTRESU,Perm,16
3.1.2,DA,DASTAT,Perm,17
3.1.2,DA,DAREASND,Perm,18
3.1.2,DA,VISITNUM,Exp,19
3.1.2,DA,VISIT,Perm,20
3.1.2,DA,VISITDY,Perm,21
3.1.2,DA,DADTC,Exp,22
3.1.2,DA,DADY,Perm,23
3.1.2,MB,STUDYID,Req,1
3.1.2,MB,DOMAIN,Req,2
3.1.2,MB,USUBJID,Req,3
3.1.2,MB,MBSEQ,Req,4
3.1.2,MB,MBGRPID,Exp,5
3.1.2,MB,MBREFID,Perm,6
3.1.2,MB,MBSPID,Perm,7
3.1.2,MB,MBTESTCD,Req,8
3.1.2,MB,MBTEST,Req,9
3.1.2,MB,MBCAT,Perm,10
3.1.2,MB,MBSCAT,Perm,11
3.1.2,MB,MBORRES,Exp,12
3.1.2,MB,MBORRESU,Perm,13
3.1.2,MB,MBSTRESC,Exp,14
3.1.2,MB,MBSTRESN,Perm,15
3.1.2,MB,MBSTRESU,Perm,16
3.1.2,MB,MBRESCAT,Exp,17
3.1.2,MB,MBSTAT,Perm,18
3.1.2,MB,MBREASND,Perm,19
3.1.2,MB,MBNAM,Perm,20
3.1.2,MB,MBLOINC,Perm,21
3.1.2,MB,MBSPEC,Perm,22
3.1.2,MB,MBSPCCND,Perm,23
3.1.2,MB,MBLOC,Perm,24
3.1.2,MB,MBMETHOD,Exp,25
3.1.2,MB,MBBLFL,Perm,26
3.1.2,MB,MBDRVFL,Perm,27
3.1.2,MB,VISITNUM,Exp,28
3.1.2,MB,VISIT,Perm,29
3.1.2,MB,VISITDY,Perm,30
3.1.2,MB,MBDTC,Exp,31
3.1.2,MB,MBDY,Perm,32
3.1.2,MB,MBTPT,Perm,33
3.1.2,MB,MBTPTNUM,Perm,34
3.1.2,MB,MBELTM,Perm,35
3.1.2,MB,MBTPTREF,Perm,36
3.1.2,MB,MBRFTDTC,Perm,37
3.1.2,MS,STUDYID,Req,1
3.1.2,MS,DOMAIN,Req,2
3.1.2,MS,USUBJID,Req,3
3.1.2,MS,MSSEQ,Req,4
3.1.2,MS,MSGRPID,Req,5
3.1.2,MS,MSREFID,Perm,6
3.1.2,MS,MSSPID,Perm,7
3.1.2,MS,MSTESTCD,Req,8
3.1.2,MS,MSTEST,Req,9
3.1.2,MS,MSCAT,Req,10
3.1.2,MS,MSSCAT,Perm,11
3.1.2,MS,MSORRES,Exp,12
3.1.2,MS,MSORRESU,Exp,13
3.1.2,MS,MSSTRESC,Exp,14
3.1.2,MS,MSSTRESN,Exp,15
3.1.2,MS,MSSTRESU,Exp,16
3.1.2,MS,MSRESCAT,Exp,17
3.1.2,MS,MSSTAT,Perm,18
3.1.2,MS,MSREASND,Perm,19
3.1.2,MS,MSNAM,Perm,20
3.1.2,MS,MSLOINC,Perm,21
3.1.2,MS,MSMETHOD,Exp,22
3.1.2,MS,MSBLFL,Perm,23
3.1.2,MS,MSDRVFL,Perm,24
3.1.2,MS,VISITNUM,Exp,25
3.1.2,MS,VISIT,Perm,26
3.1.2,MS,VISITDY,Perm,27
3.1.2,MS,MSDTC,Perm,28
3.1.2,MS,MSDY,Perm,29
3.1.2,MS,MSTPT,Perm,30
3.1.2,MS,MSTPTNUM,Perm,31
3.1.2,MS,MSELTM,Perm,32
3.1.2,MS,MSTPTREF,Perm,33
3.1.2,PC,STUDYID,Req,1
3.1.2,PC,DOMAIN,Req,2
3.1.2,PC,USUBJID,Req,3
3.1.2,PC,PCSEQ,Req,4
3.1.2,PC,PCGRPID,Perm,5
3.1.2,PC,PCREFID,Perm,6
3.1.2,PC,PCSPID,Perm,7
3.1.2,PC,PCTESTCD,Req,8
3.1.2,PC,PCTEST,Req,9
3.1.2,PC,PCCAT,Perm,10
3.1.2,PC,PCSCAT,Perm,11
3.1.2,PC,PCORRES,Exp,12
3.1.2,PC,PCORRESU,Exp,13
3.1.2,PC,PCSTRESC,Exp,14
3.1.2,PC,PCSTRESN,Exp,15
3.1.2,PC,PCSTRESU,Exp,16
3.1.2,PC,PCSTAT,Perm,17
3.1.2,PC,PCREASND,Perm,18
3.1.2,PC,PCNAM,Exp,19
3.1.2,PC,PCSPEC,Req,20
3.1.2,PC,PCSPCCND,Perm,21
3.1.2,PC,PCMETHOD,Perm,22
3.1.2,PC,PCFAST,Perm,23
3.1.2,PC,PCDRVFL,Perm,24
3.1.2,PC,PCLLOQ,Exp,25
3.1.2,PC,VISITNUM,Exp,26
3.1.2,PC,VISIT,Perm,27
3.1.2,PC,VISITDY,Perm,28
3.1.2,PC,PCDTC,Exp,29
3.1.2,PC,PCENDTC,Perm,30
3.1.2,PC,PCDY,Perm,31
3.1.2,PC,PCTPT,Perm,32
3.1.2,PC,PCTPTNUM,Perm,33
3.1.2,PC,PCELTM,Perm,34
3.1.2,PC,PCTPTREF,Perm,35
3.1.2,PC,PCRFTDTC,Perm,36
3.1.2,PC,PCEVLINT,Perm,37
3.1.2,PP,STUDYID,Req,1
3.1.2,PP,DOMAIN,Req,2
3.1.2,PP,USUBJID,Req,3
3.1.2,PP,PPSEQ,Req,4
3.1.2,PP,PPGRPID,Perm,5
3.1.2,PP,PPTESTCD,Req,6
3.1.2,PP,PPTEST,Req,7
3.1.2,PP,PPCAT,Exp,8
3.1.2,PP,PPSCAT,Perm,9
3.1.2,PP,PPORRES,Exp,10
3.1.2,PP,PPORRESU,Exp,11
3.1.2,PP,PPSTRESC,Exp,12
3.1.2,PP,PPSTRESN,Exp,13
3.1.2,PP,PPSTRESU,Exp,14
3.1.2,PP,PPSTAT,Perm,15
3.1.2,PP,PPREASND,Perm,16
3.1.2,PP,PPSPEC,Exp,17
3.1.2,PP,PPDTC,Perm,18
3.1.2,PP,PPRFTDTC,Exp,19
3.1.2,FA,STUDYID,Req,1
3.1.2,FA,DOMAIN,Req,2
3.1.2,FA,USUBJID,Req,3
3.1.2,FA,FASEQ,Req,4
3.1.2,FA,FAGRPID,Perm,5
3.1.2,FA,FASPID,Perm,6
3.1.2,FA,FATESTCD,Req,7
3.1.2,FA,FATEST,Req,8
3.1.2,FA,FAOBJ,Req,9
3.1.2,FA,FACAT,Perm,10
3.1.2,FA,FASCAT,Perm,11
3.1.2,FA,FAORRES,Exp,12
3.1.2,FA,FAORRESU,Perm,13
3.1.2,FA,FASTRESC,Exp,14
3.1.2,FA,FASTRESN,Perm,15
3.1.2,FA,FASTRESU,Perm,16
3.1.2,FA,FASTAT,Perm,17
3.1.2,FA,FAREASND,Perm,18
3.1.2,FA,FALOC,Perm,19
3.1.2,FA,FABLFL,Perm,20
3.1.2,FA,FAEVAL,Perm,21
3.1.2,FA,VISITNUM,Exp,22
3.1.2,FA,VISIT,Perm,23
3.1.2,FA,VISITDY,Perm,24
3.1.2,FA,FADTC,Perm,25
3.1.2,FA,FADY,Perm,26
3.1.2,TA,STUDYID,Req,1
3.1.2,TA,DOMAIN,Req,2
3.1.2,TA,ARMCD,Req,3
3.1.2,TA,ARM,Req,4
3.1.2,TA,TAETORD,Req,5
3.1.2,TA,ETCD,Req,6
3.1.2,TA,ELEMENT,Perm,7
3.1.2,TA,TABRANCH,Exp,8
3.1.2,TA,TATRANS,Exp,9
3.1.2,TA,EPOCH,Req,10
3.1.2,TE,STUDYID,Req,1
3.1.2,TE,DOMAIN,Req,2
3.1.2,TE,ETCD,Req,3
3.1.2,TE,ELEMENT,Req,4
3.1.2,TE,TESTRL,Req,5
3.1.2,TE,TEENRL,Perm,6
3.1.2,TE,TEDUR,Perm,7
3.1.2,TV,STUDYID,Req,1
3.1.2,TV,DOMAIN,Req,2
3.1.2,TV,VISITNUM,Req,3
3.1.2,TV,VISIT,Perm,4
3.1.2,TV,VISITDY,Perm,5
3.1.2,TV,ARMCD,Exp,6
3.1.2,TV,ARM,Perm,7
3.1.2,TV,TVSTRL,Req,8
3.1.2,TV,TVENRL,Perm,9
3.1.2,TI,STUDYID,Req,1
3.1.2,TI,DOMAIN,Req,2
3.1.2,TI,IETESTCD,Req,3
3.1.2,TI,IETEST,Req,4
3.1.2,TI,IECAT,Req,5
3.1.2,TI,IESCAT,Perm,6
3.1.2,TI,TIRL,Perm,7
3.1.2,TI,TIVERS,Perm,8
3.1.2,TS,STUDYID,Req,1
3.1.2,TS,DOMAIN,Req,2
3.1.2,TS,TSSEQ,Req,3
3.1.2,TS,TSGRPID,Perm,4
3.1.2,TS,TSPARMCD,Req,5
3.1.2,TS,TSPARM,Req,6
3.1.2,TS,TSVAL,Req,7
3.1.2,RELREC,STUDYID,Req,1
3.1.2,RELREC,RDOMAIN,Req,2
3.1.2,RELREC,USUBJID,Exp,3
3.1.2,RELREC,IDVAR,Req,4
3.1.2,RELREC,IDVARVAL,Exp,5
3.1.2,RELREC,RELTYPE,Exp,6
3.1.2,RELREC,RELID,Req,7
3.1.2,SUPPQUAL,STUDYID,Req,1
3.1.2,SUPPQUAL,RDOMAIN,Req,2
3.1.2,SUPPQUAL,USUBJID,Req,3
3.1.2,SUPPQUAL,IDVAR,Exp,4
3.1.2,SUPPQUAL,IDVARVAL,Exp,5
3.1.2,SUPPQUAL,QNAM,Req,6
3.1.2,SUPPQUAL,QLABEL,Req,7
3.1.2,SUPPQUAL,QVAL,Req,8
3.1.2,SUPPQUAL,QORIG,Req,9
3.1.2,SUPPQUAL,QEVAL,Exp,10
3.1.3,DM,STUDYID,Req,1
3.1.3,DM,DOMAIN,Req,2
3.1.3,DM,USUBJID,Req,3
3.1.3,DM,SUBJID,Req,4
3.1.3,DM,RFSTDTC,Exp,5
3.1.3,DM,RFENDTC,Exp,6
3.1.3,DM,RFXSTDTC,Exp,7
3.1.3,DM,RFXENDTC,Exp,8
3.1.3,DM,RFICDTC,Exp,9
3.1.3,DM,RFPENDTC,Exp,10
3.1.3,DM,DTHDTC,Exp,11
3.1.3,DM,DTHFL,Exp,12
3.1.3,DM,SITEID,Req,13
3.1.3,DM,INVID,Perm,14
3.1.3,DM,INVNAM,Perm,15
3.1.3,DM,BRTHDTC,Perm,16
3.1.3,DM,AGE,Exp,17
3.1.3,DM,AGEU,Exp,18
3.1.3,DM,SEX,Req,19
3.1.3,DM,RACE,Exp,20
3.1.3,DM,ETHNIC,Perm,21
3.1.3,DM,ARMCD,Req,22
3.1.3,DM,ARM,Req,23
3.1.3,DM,ACTARMCD,Req,24
3.1.3,DM,ACTARM,Req,25
3.1.3,DM,COUNTRY,Req,26
3.1.3,DM,DMDTC,Perm,27
3.1.3,DM,DMDY,Perm,28
3.1.3,CO,STUDYID,Req,1
3.1.3,CO,DOMAIN,Req,2
3.1.3,CO,RDOMAIN,Perm,3
3.1.3,CO,USUBJID,Req,4
3.1.3,CO,COSEQ,Req,5
3.1.3,CO,IDVAR,Perm,6
3.1.3,CO,IDVARVAL,Perm,7
3.1.3,CO,COREF,Perm,8
3.1.3,CO,COVAL,Req,9
3.1.3,CO,COEVAL,Perm,10
3.1.3,CO,CODTC,Perm,11
3.1.3,SE,STUDYID,Req,1
3.1.3,SE,DOMAIN,Req,2
3.1.3,SE,USUBJID,Req,3
3.1.3,SE,SESEQ,Req,4
3.1.3,SE,ETCD,Req,5
3.1.3,SE,ELEMENT,Perm,6
3.1.3,SE,SESTDTC,Req,7
3.1.3,SE,SEENDTC,Exp,8
3.1.3,SE,TAETORD,Perm,9
3.1.3,SE,EPOCH,Perm,10
3.1.3,SE,SEUPDES,Perm,11
3.1.3,SV,STUDYID,Req,1
3.1.3,SV,DOMAIN,Req,2
3.1.3,SV,USUBJID,Req,3
3.1.3,SV,VISITNUM,Req,4
3.1.3,SV,VISIT,Perm,5
3.1.3,SV,VISITDY,Perm,6
3.1.3,SV,SVSTDTC,Exp,7
3.1.3,SV,SVENDTC,Exp,8
3.1.3,SV,SVSTDY,Perm,9
3.1.3,SV,SVENDY,Perm,10
3.1.3,SV,SVUPDES,Perm,11
3.1.3,CM,STUDYID,Req,1
3.1.3,CM,DOMAIN,Req,2
3.1.3,CM,USUBJID,Req,3
3.1.3,CM,CMSEQ,Req,4
3.1.3,CM,CMGRPID,Perm,5
3.1.3,CM,CMSPID,Perm,6
3.1.3,CM,CMTRT,Req,7
3.1.3,CM,CMMODIFY,Perm,8
3.1.3,CM,CMDECOD,Perm,9
3.1.3,CM,CMCAT,Perm,10
3.1.3,CM,CMSCAT,Perm,11
3.1.3,CM,CMPRESP,Perm,12
3.1.3,CM,CMOCCUR,Perm,13
3.1.3,CM,CMSTAT,Perm,14
3.1.3,CM,CMREASND,Perm,15
3.1.3,CM,CMINDC,Perm,16
3.1.3,CM,CMCLAS,Perm,17
3.1.3,CM,CMCLASCD,Perm,18
3.1.3,CM,CMDOSE,Perm,19
3.1.3,CM,CMDOSTXT,Perm,20
3.1.3,CM,CMDOSU,Perm,21
3.1.3,CM,CMDOSFRM,Perm,22
3.1.3,CM,CMDOSFRQ,Perm,23
3.1.3,CM,CMDOSTOT,Perm,24
3.1.3,CM,CMDOSRGM,Perm,25
3.1.3,CM,CMROUTE,Perm,26
3.1.3,CM,CMSTDTC,Perm,27
3.1.3,CM,CMENDTC,Perm,28
3.1.3,CM,CMSTDY,Perm,29
3.1.3,CM,CMENDY,Perm,30
3.1.3,CM,CMDUR,Perm,31
3.1.3,CM,CMSTRF,Perm,32
3.1.3,CM,CMENRF,Perm,33
3.1.3,CM,CMSTRTPT,Perm,34
3.1.3,CM,CMSTTPT,Perm,35
3.1.3,CM,CMENRTPT,Perm,36
3.1.3,CM,CMENTPT,Perm,37
3.1.3,EX,STUDYID,Req,1
3.1.3,EX,DOMAIN,Req,2
3.1.3,EX,USUBJID,Req,3
3.1.3,EX,EXSEQ,Req,4
3.1.3,EX,EXGRPID,Perm,5
3.1.3,EX,EXSPID,Perm,6
3.1.3,EX,EXTRT,Req,7
3.1.3,EX,EXCAT,Perm,8
3.1.3,EX,EXSCAT,Perm,9
3.1.3,EX,EXDOSE,Exp,10
3.1.3,EX,EXDOSTXT,Perm,11
3.1.3,EX,EXDOSU,Exp,12
3.1.3,EX,EXDOSFRM,Exp,13
3.1.3,EX,EXDOSFRQ,Perm,14
3.1.3,EX,EXDOSTOT,Perm,15
3.1.3,EX,EXDOSRGM,Perm,16
3.1.3,EX,EXROUTE,Perm,17
3.1.3,EX,EXLOT,Perm,18
3.1.3,EX,EXLOC,Perm,19
3.1.3,EX,EXTRTV,Perm,20
3.1.3,EX,EXVAMT,Perm,21
3.1.3,EX,EXVAMTU,Perm,22
3.1.3,EX,EXADJ,Perm,23
3.1.3,EX,TAETORD,Perm,24
3.1.3,EX,EPOCH,Perm,25
3.1.3,EX,EXSTDTC,Exp,26
3.1.3,EX,EXENDTC,Perm,27
3.1.3,EX,EXSTDY,Perm,28
3.1.3,EX,EXENDY,Perm,29
3.1.3,EX,EXDUR,Perm,30
3.1.3,EX,EXTPT,Perm,31
3.1.3,EX,EXTPTNUM,Perm,32
3.1.3,EX,EXELTM,Perm,33
3.1.3,EX,EXTPTREF,Perm,34
3.1.3,SU,STUDYID,Req,1
3.1.3,SU,DOMAIN,Req,2
3.1.3,SU,USUBJID,Req,3
3.1.3,SU,SUSEQ,Req,4
3.1.3,SU,SUGRPID,Perm,5
3.1.3,SU,SUSPID,Perm,6
3.1.3,SU,SUTRT,Req,7
3.1.3,SU,SUMODIFY,Perm,8
3.1.3,SU,SUDECOD,Perm,9
3.1.3,SU,SUCAT,Perm,10
3.1.3,SU,SUSCAT,Perm,11
3.1.3,SU,SUPRESP,Perm,12
3.1.3,SU,SUOCCUR,Perm,13
3.1.3,SU,SUSTAT,Perm,14
3.1.3,SU,SUREASND,Perm,15
3.1.3,SU,SUCLAS,Perm,16
3.1.3,SU,SUCLASCD,Perm,17
3.1.3,SU,SUDOSE,Perm,18
3.1.3,SU,SUDOSTXT,Perm,19
3.1.3,SU,SUDOSU,Perm,20
3.1.3,SU,SUDOSFRM,Perm,21
3.1.3,SU,SUDOSFRQ,Perm,22
3.1.3,SU,SUDOSTOT,Perm,23
3.1.3,SU,SUROUTE,Perm,24
3.1.3,SU,SUSTDTC,Perm,25
3.1.3,SU,SUENDTC,Perm,26
3.1.3,SU,SUSTDY,Perm,27
3.1.3,SU,SUENDY,Perm,28
3.1.3,SU,SUDUR,Perm,29
3.1.3,SU,SUSTRF,Perm,30
3.1.3,SU,SUENRF,Perm,31
3.1.3,SU,SUSTRTPT,Perm,32
3.1.3,SU,SUSTTPT,Perm,33
3.1.3,SU,SUENRTPT,Perm,34
3.1.3,SU,SUENTPT,Perm,35
3.1.3,AE,STUDYID,Req,1
3.1.3,AE,DOMAIN,Req,2
3.1.3,AE,USUBJID,Req,3
3.1.3,AE,AESEQ,Req,4
3.1.3,AE,AEGRPID,Perm,5
3.1.3,AE,AEREFID,Perm,6
3.1.3,AE,AESPID,Perm,7
3.1.3,AE,AETERM,Req,8
3.1.3,AE,AEMODIFY,Perm,9
3.1.3,AE,AELLT,Exp,10
3.1.3,AE,AELLTCD,Exp,11
3.1.3,AE,AEDECOD,Req,12
3.1.3,AE,AEPTCD,Exp,13
3.1.3,AE,AEHLT,Exp,14
3.1.3,AE,AEHLTCD,Exp,15
3.1.3,AE,AEHLGT,Exp,16
3.1.3,AE,AEHLGTCD,Exp,17
3.1.3,AE,AECAT,Perm,18
3.1.3,AE,AESCAT,Perm,19
3.1.3,AE,AEPRESP,Perm,20
3.1.3,AE,AEBODSYS,Exp,21
3.1.3,AE,AEBDSYCD,Exp,22
3.1.3,AE,AESOC,Exp,23
3.1.3,AE,AESOCCD,Exp,24
3.1.3,AE,AELOC,Perm,25
3.1.3,AE,AESEV,Perm,26
3.1.3,AE,AESER,Exp,27
3.1.3,AE,AEACN,Exp,28
3.1.3,AE,AEACNOTH,Perm,29
3.1.3,AE,AEREL,Exp,30
3.1.3,AE,AERELNST,Perm,31
3.1.3,AE,AEPATT,Perm,32
3.1.3,AE,AEOUT,Perm,33
3.1.3,AE,AESCAN,Perm,34
3.1.3,AE,AESCONG,Perm,35
3.1.3,AE,AESDISAB,Perm,36
3.1.3,AE,AESDTH,Perm,37
3.1.3,AE,AESHOSP,Perm,38
3.1.3,AE,AESLIFE,Perm,39
3.1.3,AE,AESOD,Perm,40
3.1.3,AE,AESMIE,Perm,41
3.1.3,AE,AECONTRT,Perm,42
3.1.3,AE,AETOXGR,Perm,43
3.1.3,AE,AESTDTC,Exp,44
3.1.3,AE,AEENDTC,Exp,45
3.1.3,AE,AESTDY,Perm,46
3.1.3,AE,AEENDY,Perm,47
3.1.3,AE,AEDUR,Perm,48
3.1.3,AE,AEENRF,Perm,49
3.1.3,AE,AEENRTPT,Perm,50
3.1.3,AE,AEENTPT,Perm,51
3.1.3,DS,STUDYID,Req,1
3.1.3,DS,DOMAIN,Req,2
3.1.3,DS,USUBJID,Req,3
3.1.3,DS,DSSEQ,Req,4
3.1.3,DS,DSGRPID,Perm,5
3.1.3,DS,DSREFID,Perm,6
3.1.3,DS,DSSPID,Perm,7
3.1.3,DS,DSTERM,Req,8
3.1.3,DS,DSDECOD,Req,9
3.1.3,DS,DSCAT,Exp,10
3.1.3,DS,DSSCAT,Perm,11
3.1.3,DS,EPOCH,Perm,12
3.1.3,DS,DSDTC,Perm,13
3.1.3,DS,DSSTDTC,Exp,14
3.1.3,DS,DSSTDY,Perm,15
3.1.3,MH,STUDYID,Req,1
3.1.3,MH,DOMAIN,Req,2
3.1.3,MH,USUBJID,Req,3
3.1.3,MH,MHSEQ,Req,4
3.1.3,MH,MHGRPID,Perm,5
3.1.3,MH,MHREFID,Perm,6
3.1.3,MH,MHSPID,Perm,7
3.1.3,MH,MHTERM,Req,8
3.1.3,MH,MHMODIFY,Perm,9
3.1.3,MH,MHDECOD,Perm,10
3.1.3,MH,MHCAT,Perm,11
3.1.3,MH,MHSCAT,Perm,12
3.1.3,MH,MHPRESP,Perm,13
3.1.3,MH,MHOCCUR,Perm,14
3.1.3,MH,MHSTAT,Perm,15
3.1.3,MH,MHREASND,Perm,16
3.1.3,MH,MHBODSYS,Perm,17
3.1.3,MH,MHDTC,Perm,18
3.1.3,MH,MHSTDTC,Perm,19
3.1.3,MH,MHENDTC,Perm,20
3.1.3,MH,MHDY,Perm,21
3.1.3,MH,MHENRF,Perm,22
3.1.3,MH,MHENRTPT,Perm,23
3.1.3,MH,MHENTPT,Perm,24
3.1.3,DV,STUDYID,Req,1
3.1.3,DV,DOMAIN,Req,2
3.1.3,DV,USUBJID,Req,3
3.1.3,DV,DVSEQ,Req,4
3.1.3,DV,DVREFID,Perm,5
3.1.3,DV,DVSPID,Perm,6
3.1.3,DV,DVTERM,Req,7
3.1.3,DV,DVDECOD,Perm,8
3.1.3,DV,DVCAT,Perm,9
3.1.3,DV,DVSCAT,Perm,10
3.1.3,DV,EPOCH,Perm,11
3.1.3,DV,DVSTDTC,Perm,12
3.1.3,DV,DVENDTC,Perm,13
3.1.3,CE,STUDYID,Req,1
3.1.3,CE,DOMAIN,Req,2
3.1.3,CE,USUBJID,Req,3
3.1.3,CE,CESEQ,Req,4
3.1.3,CE,CEGRPID,Perm,5
3.1.3,CE,CEREFID,Perm,6
3.1.3,CE,CESPID,Perm,7
3.1.3,CE,CETERM,Req,8
3.1.3,CE,CEDECOD,Perm,9
3.1.3,CE,CECAT,Perm,10
3.1.3,CE,CESCAT,Perm,11
3.1.3,CE,CEPRESP,Perm,12
3.1.3,CE,CEOCCUR,Perm,13
3.1.3,CE,CESTAT,Perm,14
3.1.3,CE,CEREASND,Perm,15
3.1.3,CE,CEBODSYS,Perm,16
3.1.3,CE,CESEV,Perm,17
3.1.3,CE,CEDTC,Perm,18
3.1.3,CE,CESTDTC,Perm,19
3.1.3,CE,CEENDTC,Perm,20
3.1.3,CE,CEDY,Perm,21
3.1.3,CE,CESTRF,Perm,22
3.1.3,CE,CEENRF,Perm,23
3.1.3,CE,CESTRTPT,Perm,24
3.1.3,CE,CESTTPT,Perm,25
3.1.3,CE,CEENRTPT,Perm,26
3.1.3,CE,CEENTPT,Perm,27
3.1.3,EG,STUDYID,Req,1
3.1.3,EG,DOMAIN,Req,2
3.1.3,EG,USUBJID,Req,3
3.1.3,EG,EGSEQ,Req,4
3.1.3,EG,EGGRPID,Perm,5
3.1.3,EG,EGREFID,Perm,6
3.1.3,EG,EGSPID,Perm,7
3.1.3,EG,EGTESTCD,Req,8
3.1.3,EG,EGTEST,Req,9
3.1.3,EG,EGCAT,Perm,10
3.1.3,EG,EGSCAT,Perm,11
3.1.3,EG,EGPOS,Perm,12
3.1.3,EG,EGORRES,Exp,13
3.1.3,EG,EGORRESU,Perm,14
3.1.3,EG,EGSTRESC,Exp,15
3.1.3,EG,EGSTRESN,Perm,16
3.1.3,EG,EGSTRESU,Perm,17
3.1.3,EG,EGSTAT,Perm,18
3.1.3,EG,EGREASND,Perm,19
3.1.3,EG,EGXFN,Perm,20
3.1.3,EG,EGNAM,Perm,21
3.1.3,EG,EGLOC,Perm,22
3.1.3,EG,EGMETHOD,Perm,23
3.1.3,EG,EGBLFL,Exp,24
3.1.3,EG,EGDRVFL,Perm,25
3.1.3,EG,EGEVAL,Perm,26
3.1.3,EG,VISITNUM,Exp,27
3.1.3,EG,VISIT,Perm,28
3.1.3,EG,VISITDY,Perm,29
3.1.3,EG,EGDTC,Exp,30
3.1.3,EG,EGDY,Perm,31
3.1.3,EG,EGTPT,Perm,32
3.1.3,EG,EGTPTNUM,Perm,33
3.1.3,EG,EGELTM,Perm,34
3.1.3,EG,EGTPTREF,Perm,35
3.1.3,EG,EGRFTDTC,Perm,36
3.1.3,IE,STUDYID,Req,1
3.1.3,IE,DOMAIN,Req,2
3.1.3,IE,USUBJID,Req,3
3.1.3,IE,IESEQ,Req,4
3.1.3,IE,IESPID,Perm,5
3.1.3,IE,IETESTCD,Req,6
3.1.3,IE,IETEST,Req,7
3.1.3,IE,IECAT,Req,8
3.1.3,IE,IESCAT,Perm,9
3.1.3,IE,IEORRES,Req,10
3.1.3,IE,IESTRESC,Req,11
3.1.3,IE,VISITNUM,Perm,12
3.1.3,IE,VISIT,Perm,13
3.1.3,IE,VISITDY,Perm,14
3.1.3,IE,IEDTC,Perm,15
3.1.3,IE,IEDY,Perm,16
3.1.3,LB,STUDYID,Req,1
3.1.3,LB,DOMAIN,Req,2
3.1.3,LB,USUBJID,Req,3
3.1.3,LB,LBSEQ,Req,4
3.1.3,LB,LBGRPID,Perm,5
3.1.3,LB,LBREFID,Perm,6
3.1.3,LB,LBSPID,Perm,7
3.1.3,LB,LBTESTCD,Req,8
3.1.3,LB,LBTEST,Req,9
3.1.3,LB,LBCAT,Exp,10
3.1.3,LB,LBSCAT,Perm,11
3.1.3,LB,LBORRES,Exp,12
3.1.3,LB,LBORRESU,Exp,13
3.1.3,LB,LBORNRLO,Exp,14
3.1.3,LB,LBORNRHI,Exp,15
3.1.3,LB,LBSTRESC,Exp,16
3.1.3,LB,LBSTRESN,Exp,17
3.1.3,LB,LBSTRESU,Exp,18
3.1.3,LB,LBSTNRLO,Exp,19
3.1.3,LB,LBSTNRHI,Exp,20
3.1.3,LB,LBSTNRC,Perm,21
3.1.3,LB,LBNRIND,Exp,22
3.1.3,LB,LBSTAT,Perm,23
3.1.3,LB,LBREASND,Perm,24
3.1.3,LB,LBNAM,Perm,25
3.1.3,LB,LBLOINC,Perm,26
3.1.3,LB,LBSPEC,Perm,27
3.1.3,LB,LBSPCCND,Perm,28
3.1.3,LB,LBMETHOD,Perm,29
3.1.3,LB,LBBLFL,Exp,30
3.1.3,LB,LBFAST,Perm,31
3.1.3,LB,LBDRVFL,Perm,32
3.1.3,LB,LBTOX,Perm,33
3.1.3,LB,LBTOXGR,Perm,34
3.1.3,LB,VISITNUM,Exp,35
3.1.3,LB,VISIT,Perm,36
3.1.3,LB,VISITDY,Perm,37
3.1.3,LB,LBDTC,Exp,38
3.1.3,LB,LBENDTC,Perm,39
3.1.3,LB,LBDY,Perm,40
3.1.3,LB,LBTPT,Perm,41
3.1.3,LB,LBTPTNUM,Perm,42
3.1.3,LB,LBELTM,Perm,43
3.1.3,LB,LBTPTREF,Perm,44
3.1.3,LB,LBRFTDTC,Perm,45
3.1.3,PE,STUDYID,Req,1
3.1.3,PE,DOMAIN,Req,2
3.1.3,PE,USUBJID,Req,3
3.1.3,PE,PESEQ,Req,4
3.1.3,PE,PEGRPID,Perm,5
3.1.3,PE,PESPID,Perm,6
3.1.3,PE,PETESTCD,Req,7
3.1.3,PE,PETEST,Req,8
3.1.3,PE,PEMODIFY,Perm,9
3.1.3,PE,PECAT,Perm,10
3.1.3,PE,PESCAT,Perm,11
3.1.3,PE,PEBODSYS,Perm,12
3.1.3,PE,PEORRES,Exp,13
3.1.3,PE,PEORRESU,Perm,14
3.1.3,PE,PESTRESC,Exp,15
3.1.3,PE,PESTAT,Perm,16
3.1.3,PE,PEREASND,Perm,17
3.1.3,PE,PELOC,Perm,18
3.1.3,PE,PEMETHOD,Perm,19
3.1.3,PE,PEEVAL,Perm,20
3.1.3,PE,VISITNUM,Exp,21
3.1.3,PE,VISIT,Perm,22
3.1.3,PE,VISITDY,Perm,23
3.1.3,PE,PEDTC,Exp,24
3.1.3,PE,PEDY,Perm,25
3.1.3,QS,STUDYID,Req,1
3.1.3,QS,DOMAIN,Req,2
3.1.3,QS,USUBJID,Req,3
3.1.3,QS,QSSEQ,Req,4
3.1.3,QS,QSGRPID,Perm,5
3.1.3,QS,QSSPID,Perm,6
3.1.3,QS,QSTESTCD,Req,7
3.1.3,QS,QSTEST,Req,8
3.1.3,QS,QSCAT,Req,9
3.1.3,QS,QSSCAT,Perm,10
3.1.3,QS,QSORRES,Exp,11
3.1.3,QS,QSORRESU,Perm,12
3.1.3,QS,QSSTRESC,Exp,13
3.1.3,QS,QSSTRESN,Perm,14
3.1.3,QS,QSSTRESU,Perm,15
3.1.3,QS,QSSTAT,Perm,16
3.1.3,QS,QSREASND,Perm,17
3.1.3,QS,QSBLFL,Exp,18
3.1.3,QS,QSDRVFL,Perm,19
3.1.3,QS,VISITNUM,Exp,20
3.1.3,QS,VISIT,Perm,21
3.1.3,QS,VISITDY,Perm,22
3.1.3,QS,QSDTC,Exp,23
3.1.3,QS,QSDY,Perm,24
3.1.3,QS,QSTPT,Perm,25
3.1.3,QS,QSTPTNUM,Perm,26
3.1.3,QS,QSELTM,Perm,27
3.1.3,QS,QSTPTREF,Perm,28
3.1.3,QS,QSRFTDTC,Perm,29
3.1.3,QS,QSEVLINT,Perm,30
3.1.3,SC,STUDYID,Req,1
3.1.3,SC,DOMAIN,Req,2
3.1.3,SC,USUBJID,Req,3
3.1.3,SC,SCSEQ,Req,4
3.1.3,SC,SCGRPID,Perm,5
3.1.3,SC,SCSPID,Perm,6
3.1.3,SC,SCTESTCD,Req,7
3.1.3,SC,SCTEST,Req,8
3.1.3,SC,SCCAT,Perm,9
3.1.3,SC,SCSCAT,Perm,10
3.1.3,SC,SCORRES,Exp,11
3.1.3,SC,SCORRESU,Perm,12
3.1.3,SC,SCSTRESC,Exp,13
3.1.3,SC,SCSTRESN,Perm,14
3.1.3,SC,SCSTRESU,Perm,15
3.1.3,SC,SCSTAT,Perm,16
3.1.3,SC,SCREASND,Perm,17
3.1.3,SC,SCDTC,Perm,18
3.1.3,SC,SCDY,Perm,19
3.1.3,VS,STUDYID,Req,1
3.1.3,VS,DOMAIN,Req,2
3.1.3,VS,USUBJID,Req,3
3.1.3,VS,VSSEQ,Req,4
3.1.3,VS,VSGRPID,Perm,5
3.1.3,VS,VSSPID,Perm,6
3.1.3,VS,VSTESTCD,Req,7
3.1.3,VS,VSTEST,Req,8
3.1.3,VS,VSCAT,Perm,9
3.1.3,VS,VSSCAT,Perm,10
3.1.3,VS,VSPOS,Perm,11
3.1.3,VS,VSORRES,Exp,12
3.1.3,VS,VSORRESU,Exp,13
3.1.3,VS,VSSTRESC,Exp,14
3.1.3,VS,VSSTRESN,Exp,15
3.1.3,VS,VSSTRESU,Exp,16
3.1.3,VS,VSSTAT,Perm,17
3.1.3,VS,VSREASND,Perm,18
3.1.3,VS,VSLOC,Perm,19
3.1.3,VS,VSBLFL,Exp,20
3.1.3,VS,VSDRVFL,Perm,21
3.1.3,VS,VISITNUM,Exp,22
3.1.3,VS,VISIT,Perm,23
3.1.3,VS,VISITDY,Perm,24
3.1.3,VS,VSDTC,Exp,25
3.1.3,VS,VSDY,Perm,26
3.1.3,VS,VSTPT,Perm,27
3.1.3,VS,VSTPTNUM,Perm,28
3.1.3,VS,VSELTM,Perm,29
3.1.3,VS,VSTPTREF,Perm,30
3.1.3,VS,VSRFTDTC,Perm,31
3.1.3,DA,STUDYID,Req,1
3.1.3,DA,DOMAIN,Req,2
3.1.3,DA,USUBJID,Req,3
3.1.3,DA,DASEQ,Req,4
3.1.3,DA,DAGRPID,Perm,5
3.1.3,DA,DAREFID,Perm,6
3.1.3,DA,DASPID,Perm,7
3.1.3,DA,DATESTCD,Req,8
3.1.3,DA,DATEST,Req,9
3.1.3,DA,DACAT,Perm,10
3.1.3,DA,DASCAT,Perm,11
3.1.3,DA,DAORRES,Exp,12
3.1.3,DA,DAORRESU,Perm,13
3.1.3,DA,DASTRESC,Exp,14
3.1.3,DA,DASTRESN,Perm,15
3.1.3,DA,DASTRESU,Perm,16
3.1.3,DA,DASTAT,Perm,17
3.1.3,DA,DAREASND,Perm,18
3.1.3,DA,VISITNUM,Exp,19
3.1.3,DA,VISIT,Perm,20
3.1.3,DA,VISITDY,Perm,21
3.1.3,DA,DADTC,Exp,22
3.1.3,DA,DADY,Perm,23
3.1.3,MB,STUDYID,Req,1
3.1.3,MB,DOMAIN,Req,2
3.1.3,MB,USUBJID,Req,3
3.1.3,MB,MBSEQ,Req,4
3.1.3,MB,MBGRPID,Exp,5
3.1.3,MB,MBREFID,Perm,6
3.1.3,MB,MBSPID,Perm,7
3.1.3,MB,MBTESTCD,Req,8
3.1.3,MB,MBTEST,Req,9
3.1.3,MB,MBCAT,Perm,10
3.1.3,MB,MBSCAT,Perm,11
3.1.3,MB,MBORRES,Exp,12
3.1.3,MB,MBORRESU,Perm,13
3.1.3,MB,MBSTRESC,Exp,14
3.1.3,MB,MBSTRESN,Perm,15
3.1.3,MB,MBSTRESU,Perm,16
3.1.3,MB,MBRESCAT,Exp,17
3.1.3,MB,MBSTAT,Perm,18
3.1.3,MB,MBREASND,Perm,19
3.1.3,MB,MBNAM,Perm,20
3.1.3,MB,MBLOINC,Perm,21
3.1.3,MB,MBSPEC,Perm,22
3.1.3,MB,MBSPCCND,Perm,23
3.1.3,MB,MBLOC,Perm,24
3.1.3,MB,MBMETHOD,Exp,25
3.1.3,MB,MBBLFL,Perm,26
3.1.3,MB,MBDRVFL,Perm,27
3.1.3,MB,VISITNUM,Exp,28
3.1.3,MB,VISIT,Perm,29
3.1.3,MB,VISITDY,Perm,30
3.1.3,MB,MBDTC,Exp,31
3.1.3,MB,MBDY,Perm,32
3.1.3,MB,MBTPT,Perm,33
3.1.3,MB,MBTPTNUM,Perm,34
3.1.3,MB,MBELTM,Perm,35
3.1.3,MB,MBTPTREF,Perm,36
3.1.3,MB,MBRFTDTC,Perm,37
3.1.3,MS,STUDYID,Req,1
3.1.3,MS,DOMAIN,Req,2
3.1.3,MS,USUBJID,Req,3
3.1.3,MS,MSSEQ,Req,4
3.1.3,MS,MSGRPID,Req,5
3.1.3,MS,MSREFID,Perm,6
3.1.3,MS,MSSPID,Perm,7
3.1.3,MS,MSTESTCD,Req,8
3.1.3,MS,MSTEST,Req,9
3.1.3,MS,MSCAT,Req,10
3.1.3,MS,MSSCAT,Perm,11
3.1.3,MS,MSORRES,Exp,12
3.1.3,MS,MSORRESU,Exp,13
3.1.3,MS,MSSTRESC,Exp,14
3.1.3,MS,MSSTRESN,Exp,15
3.1.3,MS,MSSTRESU,Exp,16
3.1.3,MS,MSRESCAT,Exp,17
3.1.3,MS,MSSTAT,Perm,18
3.1.3,MS,MSREASND,Perm,19
3.1.3,MS,MSNAM,Perm,20
3.1.3,MS,MSLOINC,Perm,21
3.1.3,MS,MSMETHOD,Exp,22
3.1.3,MS,MSBLFL,Perm,23
3.1.3,MS,MSDRVFL,Perm,24
3.1.3,MS,VISITNUM,Exp,25
3.1.3,MS,VISIT,Perm,26
3.1.3,MS,VISITDY,Perm,27
3.1.3,MS,MSDTC,Perm,28
3.1.3,MS,MSDY,Perm,29
3.1.3,MS,MSTPT,Perm,30
3.1.3,MS,MSTPTNUM,Perm,31
3.1.3,MS,MSELTM,Perm,32
3.1.3,MS,MSTPTREF,Perm,33
3.1.3,PC,STUDYID,Req,1
3.1.3,PC,DOMAIN,Req,2
3.1.3,PC,USUBJID,Req,3
3.1.3,PC,PCSEQ,Req,4
3.1.3,PC,PCGRPID,Perm,5
3.1.3,PC,PCREFID,Perm,6
3.1.3,PC,PCSPID,Perm,7
3.1.3,PC,PCTESTCD,Req,8
3.1.3,PC,PCTEST,Req,9
3.1.3,PC,PCCAT,Perm,10
3.1.3,PC,PCSCAT,Perm,11
3.1.3,PC,PCORRES,Exp,12
3.1.3,PC,PCORRESU,Exp,13
3.1.3,PC,PCSTRESC,Exp,14
3.1.3,PC,PCSTRESN,Exp,15
3.1.3,PC,PCSTRESU,Exp,16
3.1.3,PC,PCSTAT,Perm,17
3.1.3,PC,PCREASND,Perm,18
3.1.3,PC,PCNAM,Exp,19
3.1.3,PC,PCSPEC,Req,20
3.1.3,PC,PCSPCCND,Perm,21
3.1.3,PC,PCMETHOD,Perm,22
3.1.3,PC,PCFAST,Perm,23
3.1.3,PC,PCDRVFL,Perm,24
3.1.3,PC,PCLLOQ,Exp,25
3.1.3,PC,VISITNUM,Exp,26
3.1.3,PC,VISIT,Perm,27
3.1.3,PC,VISITDY,Perm,28
3.1.3,PC,PCDTC,Exp,29
3.1.3,PC,PCENDTC,Perm,30
3.1.3,PC,PCDY,Perm,31
3.1.3,PC,PCTPT,Perm,32
3.1.3,PC,PCTPTNUM,Perm,33
3.1.3,PC,PCELTM,Perm,34
3.1.3,PC,PCTPTREF,Perm,35
3.1.3,PC,PCRFTDTC,Perm,36
3.1.3,PC,PCEVLINT,Perm,37
3.1.3,PP,STUDYID,Req,1
3.1.3,PP,DOMAIN,Req,2
3.1.3,PP,USUBJID,Req,3
3.1.3,PP,PPSEQ,Req,4
3.1.3,PP,PPGRPID,Perm,5
3.1.3,PP,PPTESTCD,Req,6
3.1.3,PP,PPTEST,Req,7
3.1.3,PP,PPCAT,Exp,8
3.1.3,PP,PPSCAT,Perm,9
3.1.3,PP,PPORRES,Exp,10
3.1.3,PP,PPORRESU,Exp,11
3.1.3,PP,PPSTRESC,Exp,12
3.1.3,PP,PPSTRESN,Exp,13
3.1.3,PP,PPSTRESU,Exp,14
3.1.3,PP,PPSTAT,Perm,15
3.1.3,PP,PPREASND,Perm,16
3.1.3,PP,PPSPEC,Exp,17
3.1.3,PP,PPDTC,Perm,18
3.1.3,PP,PPRFTDTC,Exp,19
3.1.3,TU,STUDYID,Req,1
3.1.3,TU,DOMAIN,Req,2
3.1.3,TU,USUBJID,Req,3
3.1.3,TU,TUSEQ,Req,4
3.1.3,TU,TUGRPID,Perm,5
3.1.3,TU,TUREFID,Perm,6
3.1.3,TU,TUSPID,Perm,7
3.1.3,TU,TULNKID,Exp,8
3.1.3,TU,TUTESTCD,Req,9
3.1.3,TU,TUTEST,Req,10
3.1.3,TU,TUORRES,Exp,11
3.1.3,TU,TUSTRESC,Exp,12
3.1.3,TU,TUNAM,Perm,13
3.1.3,TU,TULOC,Exp,14
3.1.3,TU,TULAT,Perm,15
3.1.3,TU,TUDIR,Perm,16
3.1.3,TU,TUPORTOT,Perm,17
3.1.3,TU,TUMETHOD,Exp,18
3.1.3,TU,TUEVAL,Exp,19
3.1.3,TU,TUEVALID,Perm,20
3.1.3,TU,TUACPTFL,Perm,21
3.1.3,TU,VISITNUM,Exp,22
3.1.3,TU,VISIT,Perm,23
3.1.3,TU,VISITDY,Perm,24
3.1.3,TU,EPOCH,Perm,25
3.1.3,TU,TUDTC,Exp,26
3.1.3,TU,TUDY,Perm,27
3.1.3,TR,STUDYID,Req,1
3.1.3,TR,DOMAIN,Req,2
3.1.3,TR,USUBJID,Req,3
3.1.3,TR,TRSEQ,Req,4
3.1.3,TR,TRGRPID,Perm,5
3.1.3,TR,TRREFID,Perm,6
3.1.3,TR,TRSPID,Perm,7
3.1.3,TR,TRLNKID,Exp,8
3.1.3,TR,TRLNKGRP,Perm,9
3.1.3,TR,TRTESTCD,Req,10
3.1.3,TR,TRTEST,Req,11
3.1.3,TR,TRORRES,Exp,12
3.1.3,TR,TRORRESU,Exp,13
3.1.3,TR,TRSTRESC,Exp,14
3.1.3,TR,TRSTRESN,Exp,15
3.1.3,TR,TRSTRESU,Exp,16
3.1.3,TR,TRSTAT,Perm,17
3.1.3,TR,TRREASND,Perm,18
3.1.3,TR,TRNAM,Perm,19
3.1.3,TR,TRMETHOD,Exp,20
3.1.3,TR,TREVAL,Exp,21
3.1.3,TR,TREVALID,Perm,22
3.1.3,TR,TRACPTFL,Perm,23
3.1.3,TR,VISITNUM,Exp,24
3.1.3,TR,VISIT,Perm,25
3.1.3,TR,VISITDY,Perm,26
3.1.3,TR,EPOCH,Perm,27
3.1.3,TR,TRDTC,Exp,28
3.1.3,TR,TRDY,Perm,29
3.1.3,RS,STUDYID,Req,1
3.1.3,RS,DOMAIN,Req,2
3.1.3,RS,USUBJID,Req,3
3.1.3,RS,RSSEQ,Req,4
3.1.3,RS,RSGRPID,Perm,5
3.1.3,RS,RSREFID,Perm,6
3.1.3,RS,RSSPID,Perm,7
3.1.3,RS,RSLNKID,Perm,8
3.1.3,RS,RSLNKGRP,Perm,9
3.1.3,RS,RSTESTCD,Req,10
3.1.3,RS,RSTEST,Req,11
3.1.3,RS,RSCAT,Exp,12
3.1.3,RS,RSORRES,Exp,13
3.1.3,RS,RSSTRESC,Exp,14
3.1.3,RS,RSSTAT,Perm,15
3.1.3,RS,RSREASND,Perm,16
3.1.3,RS,RSNAM,Perm,17
3.1.3,RS,RSEVAL,Exp,18
3.1.3,RS,RSEVALID,Perm,19
3.1.3,RS,RSACPTFL,Perm,20
3.1.3,RS,VISITNUM,Exp,21
3.1.3,RS,VISIT,Perm,22
3.1.3,RS,VISITDY,Perm,23
3.1.3,RS,EPOCH,Perm,24
3.1.3,RS,RSDTC,Exp,25
3.1.3,RS,RSDY,Perm,26
3.1.3,FA,STUDYID,Req,1
3.1.3,FA,DOMAIN,Req,2
3.1.3,FA,USUBJID,Req,3
3.1.3,FA,FASEQ,Req,4
3.1.3,FA,FAGRPID,Perm,5
3.1.3,FA,FASPID,Perm,6
3.1.3,FA,FATESTCD,Req,7
3.1.3,FA,FATEST,Req,8
3.1.3,FA,FAOBJ,Req,9
3.1.3,FA,FACAT,Perm,10
3.1.3,FA,FASCAT,Perm,11
3.1.3,FA,FAORRES,Exp,12
3.1.3,FA,FAORRESU,Perm,13
3.1.3,FA,FASTRESC,Exp,14
3.1.3,FA,FASTRESN,Perm,15
3.1.3,FA,FASTRESU,Perm,16
3.1.3,FA,FASTAT,Perm,17
3.1.3,FA,FAREASND,Perm,18
3.1.3,FA,FALOC,Perm,19
3.1.3,FA,FABLFL,Perm,20
3.1.3,FA,FAEVAL,Perm,21
3.1.3,FA,VISITNUM,Exp,22
3.1.3,FA,VISIT,Perm,23
3.1.3,FA,VISITDY,Perm,24
3.1.3,FA,FADTC,Perm,25
3.1.3,FA,FADY,Perm,26
3.1.3,TA,STUDYID,Req,1
3.1.3,TA,DOMAIN,Req,2
3.1.3,TA,ARMCD,Req,3
3.1.3,TA,ARM,Req,4
3.1.3,TA,TAETORD,Req,5
3.1.3,TA,ETCD,Req,6
3.1.3,TA,ELEMENT,Perm,7
3.1.3,TA,TABRANCH,Exp,8
3.1.3,TA,TATRANS,Exp,9
3.1.3,TA,EPOCH,Req,10
3.1.3,TE,STUDYID,Req,1
3.1.3,TE,DOMAIN,Req,2
3.1.3,TE,ETCD,Req,3
3.1.3,TE,ELEMENT,Req,4
3.1.3,TE,TESTRL,Req,5
3.1.3,TE,TEENRL,Perm,6
3.1.3,TE,TEDUR,Perm,7
3.1.3,TV,STUDYID,Req,1
3.1.3,TV,DOMAIN,Req,2
3.1.3,TV,VISITNUM,Req,3
3.1.3,TV,VISIT,Perm,4
3.1.3,TV,VISITDY,Perm,5
3.1.3,TV,ARMCD,Exp,6
3.1.3,TV,ARM,Perm,7
3.1.3,TV,TVSTRL,Req,8
3.1.3,TV,TVENRL,Perm,9
3.1.3,TI,STUDYID,Req,1
3.1.3,TI,DOMAIN,Req,2
3.1.3,TI,IETESTCD,Req,3
3.1.3,TI,IETEST,Req,4
3.1.3,TI,IECAT,Req,5
3.1.3,TI,IESCAT,Perm,6
3.1.3,TI,TIRL,Perm,7
3.1.3,TI,TIVERS,Perm,8
3.1.3,TS,STUDYID,Req,1
3.1.3,TS,DOMAIN,Req,2
3.1.3,TS,TSSEQ,Req,3
3.1.3,TS,TSGRPID,Perm,4
3.1.3,TS,TSPARMCD,Req,5
3.1.3,TS,TSPARM,Req,6
3.1.3,TS,TSVAL,Exp,7
3.1.3,TS,TSVALNF,Perm,8
3.1.3,TS,TSVALCD,Exp,9
3.1.3,TS,TSVCDREF,Exp,10
3.1.3,TS,TSVCDVER,Exp,11
3.1.3,RELREC,STUDYID,Req,1
3.1.3,RELREC,RDOMAIN,Req,2
3.1.3,RELREC,USUBJID,Exp,3
3.1.3,RELREC,IDVAR,Req,4
3.1.3,RELREC,IDVARVAL,Exp,5
3.1.3,RELREC,RELTYPE,Exp,6
3.1.3,RELREC,RELID,Req,7
3.1.3,SUPPQUAL,STUDYID,Req,1
3.1.3,SUPPQUAL,RDOMAIN,Req,2
3.1.3,SUPPQUAL,USUBJID,Req,3
3.1.3,SUPPQUAL,IDVAR,Exp,4
3.1.3,SUPPQUAL,IDVARVAL,Exp,5
3.1.3,SUPPQUAL,QNAM,Req,6
3.1.3,SUPPQUAL,QLABEL,Req,7
3.1.3,SUPPQUAL,QVAL,Req,8
3.1.3,SUPPQUAL,QORIG,Req,9
3.1.3,SUPPQUAL,QEVAL,Exp,10
3.2,CO,STUDYID,Req,1
3.2,CO,DOMAIN,Req,2
3.2,CO,RDOMAIN,Perm,3
3.2,CO,USUBJID,Req,4
3.2,CO,COSEQ,Req,5
3.2,CO,IDVAR,Perm,6
3.2,CO,IDVARVAL,Perm,7
3.2,CO,COREF,Perm,8
3.2,CO,COVAL,Req,9
3.2,CO,COEVAL,Perm,10
3.2,CO,CODTC,Perm,11
3.2,DM,STUDYID,Req,1
3.2,DM,DOMAIN,Req,2
3.2,DM,USUBJID,Req,3
3.2,DM,SUBJID,Req,4
3.2,DM,RFSTDTC,Exp,5
3.2,DM,RFENDTC,Exp,6
3.2,DM,RFXSTDTC,Exp,7
3.2,DM,RFXENDTC,Exp,8
3.2,DM,RFICDTC,Exp,9
3.2,DM,RFPENDTC,Exp,10
3.2,DM,DTHDTC,Exp,11
3.2,DM,DTHFL,Exp,12
3.2,DM,SITEID,Req,13
3.2,DM,INVID,Perm,14
3.2,DM,INVNAM,Perm,15
3.2,DM,BRTHDTC,Perm,16
3.2,DM,AGE,Exp,17
3.2,DM,AGEU,Exp,18
3.2,DM,SEX,Req,19
3.2,DM,RACE,Exp,20
3.2,DM,ETHNIC,Perm,21
3.2,DM,ARMCD,Req,22
3.2,DM,ARM,Req,23
3.2,DM,ACTARMCD,Req,24
3.2,DM,ACTARM,Req,25
3.2,DM,COUNTRY,Req,26
3.2,DM,DMDTC,Perm,27
3.2,DM,DMDY,Perm,28
3.2,SE,STUDYID,Req,1
3.2,SE,DOMAIN,Req,2
3.2,SE,USUBJID,Req,3
3.2,SE,SESEQ,Req,4
3.2,SE,ETCD,Req,5
3.2,SE,ELEMENT,Perm,6
3.2,SE,SESTDTC,Req,7
3.2,SE,SEENDTC,Exp,8
3.2,SE,TAETORD,Perm,9
3.2,SE,EPOCH,Perm,10
3.2,SE,SEUPDES,Perm,11
3.2,SV,STUDYID,Req,1
3.2,SV,DOMAIN,Req,2
3.2,SV,USUBJID,Req,3
3.2,SV,VISITNUM,Req,4
3.2,SV,VISIT,Perm,5
3.2,SV,VISITDY,Perm,6
3.2,SV,SVSTDTC,Exp,7
3.2,SV,SVENDTC,Exp,8
3.2,SV,SVSTDY,Perm,9
3.2,SV,SVENDY,Perm,10
3.2,SV,SVUPDES,Perm,11
3.2,CM,STUDYID,Req,1
3.2,CM,DOMAIN,Req,2
3.2,CM,USUBJID,Req,3
3.2,CM,CMSEQ,Req,4
3.2,CM,CMGRPID,Perm,5
3.2,CM,CMSPID,Perm,6
3.2,CM,CMTRT,Req,7
3.2,CM,CMMODIFY,Perm,8
3.2,CM,CMDECOD,Perm,9
3.2,CM,CMCAT,Perm,10
3.2,CM,CMSCAT,Perm,11
3.2,CM,CMPRESP,Perm,12
3.2,CM,CMOCCUR,Perm,13
3.2,CM,CMSTAT,Perm,14
3.2,CM,CMREASND,Perm,15
3.2,CM,CMINDC,Perm,16
3.2,CM,CMCLAS,Perm,17
3.2,CM,CMCLASCD,Perm,18
3.2,CM,CMDOSE,Perm,19
3.2,CM,CMDOSTXT,Perm,20
3.2,CM,CMDOSU,Perm,21
3.2,CM,CMDOSFRM,Perm,22
3.2,CM,CMDOSFRQ,Perm,23
3.2,CM,CMDOSTOT,Perm,24
3.2,CM,CMDOSRGM,Perm,25
3.2,CM,CMROUTE,Perm,26
3.2,CM,CMSTDTC,Perm,27
3.2,CM,CMENDTC,Perm,28
3.2,CM,CMSTDY,Perm,29
3.2,CM,CMENDY,Perm,30
3.2,CM,CMDUR,Perm,31
3.2,CM,CMSTRF,Perm,32
3.2,CM,CMENRF,Perm,33
3.2,CM,CMSTRTPT,Perm,34
3.2,CM,CMSTTPT,Perm,35
3.2,CM,CMENRTPT,Perm,36
3.2,CM,CMENTPT,Perm,37
3.2,EX,STUDYID,Req,1
3.2,EX,DOMAIN,Req,2
3.2,EX,USUBJID,Req,3
3.2,EX,EXSEQ,Req,4
3.2,EX,EXGRPID,Perm,5
3.2,EX,EXREFID,Perm,6
3.2,EX,EXSPID,Perm,7
3.2,EX,EXLNKID,Perm,8
3.2,EX,EXLNKGRP,Perm,9
3.2,EX,EXTRT,Req,10
3.2,EX,EXCAT,Perm,11
3.2,EX,EXSCAT,Perm,12
3.2,EX,EXDOSE,Exp,13
3.2,EX,EXDOSTXT,Perm,14
3.2,EX,EXDOSU,Exp,15
3.2,EX,EXDOSFRM,Exp,16
3.2,EX,EXDOSFRQ,Perm,17
3.2,EX,EXDOSRGM,Perm,18
3.2,EX,EXROUTE,Perm,19
3.2,EX,EXLOT,Perm,20
3.2,EX,EXLOC,Perm,21
3.2,EX,EXLAT,Perm,22
3.2,EX,EXDIR,Perm,23
3.2,EX,EXFAST,Perm,24
3.2,EX,EXADJ,Perm,25
3.2,EX,EPOCH,Perm,26
3.2,EX,EXSTDTC,Exp,27
3.2,EX,EXENDTC,Exp,28
3.2,EX,EXSTDY,Perm,29
3.2,EX,EXENDY,Perm,30
3.2,EX,EXDUR,Perm,31
3.2,EX,EXTPT,Perm,32
3.2,EX,EXTPTNUM,Perm,33
3.2,EX,EXELTM,Perm,34
3.2,EX,EXTPTREF,Perm,35
3.2,EX,EXRFTDTC,Perm,36
3.2,EC,STUDYID,Req,1
3.2,EC,DOMAIN,Req,2
3.2,EC,USUBJID,Req,3
3.2,EC,ECSEQ,Req,4
3.2,EC,ECGRPID,Perm,5
3.2,EC,ECREFID,Perm,6
3.2,EC,ECSPID,Perm,7
3.2,EC,ECLNKID,Perm,8
3.2,EC,ECLNKGRP,Perm,9
3.2,EC,ECTRT,Req,10
3.2,EC,ECMOOD,Perm,11
3.2,EC,ECCAT,Perm,12
3.2,EC,ECSCAT,Perm,13
3.2,EC,ECPRESP,Perm,14
3.2,EC,ECOCCUR,Perm,15
3.2,EC,ECDOSE,Exp,16
3.2,EC,ECDOSTXT,Perm,17
3.2,EC,ECDOSU,Exp,18
3.2,EC,ECDOSFRM,Exp,19
3.2,EC,ECDOSFRQ,Perm,20
3.2,EC,ECDOSTOT,Perm,21
3.2,EC,ECDOSRGM,Perm,22
3.2,EC,ECROUTE,Perm,23
3.2,EC,ECLOT,Perm,24
3.2,EC,ECLOC,Perm,25
3.2,EC,ECLAT,Perm,26
3.2,EC,ECDIR,Perm,27
3.2,EC,ECPORTOT,Perm,28
3.2,EC,ECFAST,Perm,29
3.2,EC,ECPSTRG,Perm,30
3.2,EC,ECPSTRGU,Perm,31
3.2,EC,ECADJ,Perm,32
3.2,EC,EPOCH,Perm,33
3.2,EC,ECSTDTC,Exp,34
3.2,EC,ECENDTC,Exp,35
3.2,EC,ECSTDY,Perm,36
3.2,EC,ECENDY,Perm,37
3.2,EC,ECDUR,Perm,38
3.2,EC,ECTPT,Perm,39
3.2,EC,ECTPTNUM,Perm,40
3.2,EC,ECELTM,Perm,41
3.2,EC,ECTPTREF,Perm,42
3.2,EC,ECRFTDTC,Perm,43
3.2,PR,STUDYID,Req,1
3.2,PR,DOMAIN,Req,2
3.2,PR,USUBJID,Req,3
3.2,PR,PRSEQ,Req,4
3.2,PR,PRGRPID,Perm,5
3.2,PR,PRSPID,Perm,6
3.2,PR,PRLNKID,Perm,7
3.2,PR,PRLNKGRP,,8
3.2,PR,PRTRT,Req,9
3.2,PR,PRDECOD,Perm,10
3.2,PR,PRCAT,Perm,11
3.2,PR,PRSCAT,Perm,12
3.2,PR,PRPRESP,Perm,13
3.2,PR,PROCCUR,Perm,14
3.2,PR,PRINDC,Perm,15
3.2,PR,PRDOSE,Perm,16
3.2,PR,PRDOSTXT,Perm,17
3.2,PR,PRDOSU,Perm,18
3.2,PR,PRDOSFRM,Perm,19
3.2,PR,PRDOSFRQ,Perm,20
3.2,PR,PRDOSRGM,Perm,21
3.2,PR,PRROUTE,Perm,22
3.2,PR,PRLOC,Perm,23
3.2,PR,PRLAT,Perm,24
3.2,PR,PRDIR,Perm,25
3.2,PR,PRPORTOT,Perm,26
3.2,PR,VISITNUM,Perm,27
3.2,PR,VISIT,Perm,28
3.2,PR,VISITDY,Perm,29
3.2,PR,PRSTDTC,Exp,30
3.2,PR,PRENDTC,Perm,31
3.2,PR,PRSTDY,Perm,32
3.2,PR,PRENDY,Perm,33
3.2,PR,PRDUR,Perm,34
3.2,PR,PRTPT,Perm,35
3.2,PR,PRTPTNUM,Perm,36
3.2,PR,PRELTM,Perm,37
3.2,PR,PRTPTREF,Perm,38
3.2,PR,PRRFTDTC,Perm,39
3.2,PR,PRSTRTPT,Perm,40
3.2,PR,PRSTTPT,Perm,41
3.2,PR,PRENRTPT,Perm,42
3.2,PR,PRENTPT,Perm,43
3.2,SU,STUDYID,Req,1
3.2,SU,DOMAIN,Req,2
3.2,SU,USUBJID,Req,3
3.2,SU,SUSEQ,Req,4
3.2,SU,SUGRPID,Perm,5
3.2,SU,SUSPID,Perm,6
3.2,SU,SUTRT,Req,7
3.2,SU,SUMODIFY,Perm,8
3.2,SU,SUDECOD,Perm,9
3.2,SU,SUCAT,Perm,10
3.2,SU,SUSCAT,Perm,11
3.2,SU,SUPRESP,Perm,12
3.2,SU,SUOCCUR,Perm,13
3.2,SU,SUSTAT,Perm,14
3.2,SU,SUREASND,Perm,15
3.2,SU,SUCLAS,Perm,16
3.2,SU,SUCLASCD,Perm,17
3.2,SU,SUDOSE,Perm,18
3.2,SU,SUDOSTXT,Perm,19
3.2,SU,SUDOSU,Perm,20
3.2,SU,SUDOSFRM,Perm,21
3.2,SU,SUDOSFRQ,Perm,22
3.2,SU,SUDOSTOT,Perm,23
3.2,SU,SUROUTE,Perm,24
3.2,SU,SUSTDTC,Perm,25
3.2,SU,SUENDTC,Perm,26
3.2,SU,SUSTDY,Perm,27
3.2,SU,SUENDY,Perm,28
3.2,SU,SUDUR,Perm,29
3.2,SU,SUSTRF,Perm,30
3.2,SU,SUENRF,Perm,31
3.2,SU,SUSTRTPT,Perm,32
3.2,SU,SUSTTPT,Perm,33
3.2,SU,SUENRTPT,Perm,34
3.2,SU,SUENTPT,Perm,35
3.2,AE,STUDYID,Req,1
3.2,AE,DOMAIN,Req,2
3.2,AE,USUBJID,Req,3
3.2,AE,AESEQ,Req,4
3.2,AE,AEGRPID,Perm,5
3.2,AE,AEREFID,Perm,6
3.2,AE,AESPID,Perm,7
3.2,AE,AETERM,Req,8
3.2,AE,AEMODIFY,Perm,9
3.2,AE,AELLT,Exp,10
3.2,AE,AELLTCD,Exp,11
3.2,AE,AEDECOD,Req,12
3.2,AE,AEPTCD,Exp,13
3.2,AE,AEHLT,Exp,14
3.2,AE,AEHLTCD,Exp,15
3.2,AE,AEHLGT,Exp,16
3.2,AE,AEHLGTCD,Exp,17
3.2,AE,AECAT,Perm,18
3.2,AE,AESCAT,Perm,19
3.2,AE,AEPRESP,Perm,20
3.2,AE,AEBODSYS,Exp,21
3.2,AE,AEBDSYCD,Exp,22
3.2,AE,AESOC,Exp,23
3.2,AE,AESOCCD,Exp,24
3.2,AE,AELOC,Perm,25
3.2,AE,AESEV,Perm,26
3.2,AE,AESER,Exp,27
3.2,AE,AEACN,Exp,28
3.2,AE,AEACNOTH,Perm,29
3.2,AE,AEREL,Exp,30
3.2,AE,AERELNST,Perm,31
3.2,AE,AEPATT,Perm,32
3.2,AE,AEOUT,Perm,33
3.2,AE,AESCAN,Perm,34
3.2,AE,AESCONG,Perm,35
3.2,AE,AESDISAB,Perm,36
3.2,AE,AESDTH,Perm,37
3.2,AE,AESHOSP,Perm,38
3.2,AE,AESLIFE,Perm,39
3.2,AE,AESOD,Perm,40
3.2,AE,AESMIE,Perm,41
3.2,AE,AECONTRT,Perm,42
3.2,AE,AETOXGR,Perm,43
3.2,AE,AESTDTC,Exp,44
3.2,AE,AEENDTC,Exp,45
3.2,AE,AESTDY,Perm,46
3.2,AE,AEENDY,Perm,47
3.2,AE,AEDUR,Perm,48
3.2,AE,AEENRF,Perm,49
3.2,AE,AEENRTPT,Perm,50
3.2,AE,AEENTPT,Perm,51
3.2,CE,STUDYID,Req,1
3.2,CE,DOMAIN,Req,2
3.2,CE,USUBJID,Req,3
3.2,CE,CESEQ,Req,4
3.2,CE,CEGRPID,Perm,5
3.2,CE,CEREFID,Perm,6
3.2,CE,CESPID,Perm,7
3.2,CE,CETERM,Req,8
3.2,CE,CEDECOD,Perm,9
3.2,CE,CECAT,Perm,10
3.2,CE,CESCAT,Perm,11
3.2,CE,CEPRESP,Perm,12
3.2,CE,CEOCCUR,Perm,13
3.2,CE,CESTAT,Perm,14
3.2,CE,CEREASND,Perm,15
3.2,CE,CEBODSYS,Perm,16
3.2,CE,CESEV,Perm,17
3.2,CE,CEDTC,Perm,18
3.2,CE,CESTDTC,Perm,19
3.2,CE,CEENDTC,Perm,20
3.2,CE,CEDY,Perm,21
3.2,CE,CESTRF,Perm,22
3.2,CE,CEENRF,Perm,23
3.2,CE,CESTRTPT,Perm,24
3.2,CE,CESTTPT,Perm,25
3.2,CE,CEENRTPT,Perm,26
3.2,CE,CEENTPT,Perm,27
3.2,DS,STUDYID,Req,1
3.2,DS,DOMAIN,Req,2
3.2,DS,USUBJID,Req,3
3.2,DS,DSSEQ,Req,4
3.2,DS,DSGRPID,Perm,5
3.2,DS,DSREFID,Perm,6
3.2,DS,DSSPID,Perm,7
3.2,DS,DSTERM,Req,8
3.2,DS,DSDECOD,Req,9
3.2,DS,DSCAT,Exp,10
3.2,DS,DSSCAT,Perm,11
3.2,DS,EPOCH,Perm,12
3.2,DS,DSDTC,Perm,13
3.2,DS,DSSTDTC,Exp,14
3.2,DS,DSSTDY,Perm,15
3.2,DV,STUDYID,Req,1
3.2,DV,DOMAIN,Req,2
3.2,DV,USUBJID,Req,3
3.2,DV,DVSEQ,Req,4
3.2,DV,DVREFID,Perm,5
3.2,DV,DVSPID,Perm,6
3.2,DV,DVTERM,Req,7
3.2,DV,DVDECOD,Perm,8
3.2,DV,DVCAT,Perm,9
3.2,DV,DVSCAT,Perm,10
3.2,DV,EPOCH,Perm,11
3.2,DV,DVSTDTC,Perm,12
3.2,DV,DVENDTC,Perm,13
3.2,HO,STUDYID,Req,1
3.2,HO,DOMAIN,Req,2
3.2,HO,USUBJID,Req,3
3.2,HO,HOSEQ,Req,4
3.2,HO,HOGRPID,Perm,5
3.2,HO,HOREFID,Perm,6
3.2,HO,HOSPID,Perm,7
3.2,HO,HOTERM,Req,8
3.2,HO,HODECOD,Perm,9
3.2,HO,HOCAT,Perm,10
3.2,HO,HOSCAT,Perm,11
3.2,HO,HOPRESP,Perm,12
3.2,HO,HOOCCUR,Perm,13
3.2,HO,HOSTAT,Perm,14
3.2,HO,HOREASND,Perm,15
3.2,HO,HODTC,Perm,16
3.2,HO,HOSTDTC,Exp,17
3.2,HO,HOENDTC,Perm,18
3.2,HO,HODY,Perm,19
3.2,HO,HOSTDY,Perm,20
3.2,HO,HOENDY,Perm,21
3.2,HO,HODUR,Perm,22
3.2,HO,HOSTRTPT,Perm,23
3.2,HO,HOSTTPT,Perm,24
3.2,HO,HOENRTPT,Perm,25
3.2,HO,HOENTPT,Perm,26
3.2,MH,STUDYID,Req,1
3.2,MH,DOMAIN,Req,2
3.2,MH,USUBJID,Req,3
3.2,MH,MHSEQ,Req,4
3.2,MH,MHGRPID,Perm,5
3.2,MH,MHREFID,Perm,6
3.2,MH,MHSPID,Perm,7
3.2,MH,MHTERM,Req,8
3.2,MH,MHMODIFY,Perm,9
3.2,MH,MHDECOD,Perm,10
3.2,MH,MHCAT,Perm,11
3.2,MH,MHSCAT,Perm,12
3.2,MH,MHPRESP,Perm,13
3.2,MH,MHOCCUR,Perm,14
3.2,MH,MHSTAT,Perm,15
3.2,MH,MHREASND,Perm,16
3.2,MH,MHBODSYS,Perm,17
3.2,MH,MHDTC,Perm,18
3.2,MH,MHSTDTC,Perm,19
3.2,MH,MHENDTC,Perm,20
3.2,MH,MHDY,Perm,21
3.2,MH,MHENRF,Perm,22
3.2,MH,MHENRTPT,Perm,23
3.2,MH,MHENTPT,Perm,24
3.2,DA,STUDYID,Req,1
3.2,DA,DOMAIN,Req,2
3.2,DA,USUBJID,Req,3
3.2,DA,DASEQ,Req,4
3.2,DA,DAGRPID,Perm,5
3.2,DA,DAREFID,Perm,6
3.2,DA,DASPID,Perm,7
3.2,DA,DATESTCD,Req,8
3.2,DA,DATEST,Req,9
3.2,DA,DACAT,Perm,10
3.2,DA,DASCAT,Perm,11
3.2,DA,DAORRES,Exp,12
3.2,DA,DAORRESU,Perm,13
3.2,DA,DASTRESC,Exp,14
3.2,DA,DASTRESN,Perm,15
3.2,DA,DASTRESU,Perm,16
3.2,DA,DASTAT,Perm,17
3.2,DA,DAREASND,Perm,18
3.2,DA,VISITNUM,Exp,19
3.2,DA,VISIT,Perm,20
3.2,DA,VISITDY,Perm,21
3.2,DA,DADTC,Exp,22
3.2,DA,DADY,Perm,23
3.2,DD,STUDYID,Req,1
3.2,DD,DOMAIN,Req,2
3.2,DD,USUBJID,Req,3
3.2,DD,DDSEQ,Req,4
3.2,DD,DDTESTCD,Req,5
3.2,DD,DDTEST,Req,6
3.2,DD,DDORRES,Exp,7
3.2,DD,DDSTRESC,Exp,8
3.2,DD,DDRESCAT,Perm,9
3.2,DD,DDEVAL,Perm,10
3.2,DD,DDDTC,Exp,11
3.2,DD,DDDY,Perm,12
3.2,EG,STUDYID,Req,1
3.2,EG,DOMAIN,Req,2
3.2,EG,USUBJID,Req,3
3.2,EG,EGSEQ,Req,4
3.2,EG,EGGRPID,Perm,5
3.2,EG,EGREFID,Perm,6
3.2,EG,EGSPID,Perm,7
3.2,EG,EGTESTCD,Req,8
3.2,EG,EGTEST,Req,9
3.2,EG,EGCAT,Perm,10
3.2,EG,EGSCAT,Perm,11
3.2,EG,EGPOS,Perm,12
3.2,EG,EGORRES,Exp,13
3.2,EG,EGORRESU,Perm,14
3.2,EG,EGSTRESC,Exp,15
3.2,EG,EGSTRESN,Perm,16
3.2,EG,EGSTRESU,Perm,17
3.2,EG,EGSTAT,Perm,18
3.2,EG,EGREASND,Perm,19
3.2,EG,EGXFN,Perm,20
3.2,EG,EGNAM,Perm,21
3.2,EG,EGLEAD,Perm,22
3.2,EG,EGMETHOD,Perm,23
3.2,EG,EGBLFL,Exp,24
3.2,EG,EGDRVFL,Perm,25
3.2,EG,EGEVAL,Perm,26
3.2,EG,VISITNUM,Exp,27
3.2,EG,VISIT,Perm,28
3.2,EG,VISITDY,Perm,29
3.2,EG,EGDTC,Exp,30
3.2,EG,EGDY,Perm,31
3.2,EG,EGTPT,Perm,32
3.2,EG,EGTPTNUM,Perm,33
3.2,EG,EGELTM,Perm,34
3.2,EG,EGTPTREF,Perm,35
3.2,EG,EGRFTDTC,Perm,36
3.2,IE,STUDYID,Req,1
3.2,IE,DOMAIN,Req,2
3.2,IE,USUBJID,Req,3
3.2,IE,IESEQ,Req,4
3.2,IE,IESPID,Perm,5
3.2,IE,IETESTCD,Req,6
3.2,IE,IETEST,Req,7
3.2,IE,IECAT,Req,8
3.2,IE,IESCAT,Perm,9
3.2,IE,IEORRES,Req,10
3.2,IE,IESTRESC,Req,11
3.2,IE,VISITNUM,Perm,12
3.2,IE,VISIT,Perm,13
3.2,IE,VISITDY,Perm,14
3.2,IE,IEDTC,Perm,15
3.2,IE,IEDY,Perm,16
3.2,IS,STUDYID,Req,1
3.2,IS,DOMAIN,Req,2
3.2,IS,USUBJID,Req,3
3.2,IS,ISSEQ,Req,4
3.2,IS,ISGRPID,Perm,5
3.2,IS,ISREFID,Perm,6
3.2,IS,ISSPID,Perm,7
3.2,IS,ISTESTCD,Req,8
3.2,IS,ISTEST,Req,9
3.2,IS,ISCAT,Perm,10
3.2,IS,ISSCAT,Perm,11
3.2,IS,ISORRES,Exp,12
3.2,IS,ISORRESU,Exp,13
3.2,IS,ISSTRESC,Exp,14
3.2,IS,ISSTRESN,Exp,15
3.2,IS,ISSTRESU,Exp,16
3.2,IS,ISSTAT,Perm,17
3.2,IS,ISREASND,Perm,18
3.2,IS,ISNAM,Perm,19
3.2,IS,ISSPEC,Perm,20
3.2,IS,ISMETHOD,Perm,21
3.2,IS,ISBLFL,Perm,22
3.2,IS,ISLLOQ,Exp,23
3.2,IS,VISITNUM,Exp,24
3.2,IS,VISIT,Perm,25
3.2,IS,VISITDY,Perm,26
3.2,IS,ISDTC,Exp,27
3.2,IS,ISDY,Perm,28
3.2,LB,STUDYID,Req,1
3.2,LB,DOMAIN,Req,2
3.2,LB,USUBJID,Req,3
3.2,LB,LBSEQ,Req,4
3.2,LB,LBGRPID,Perm,5
3.2,LB,LBREFID,Perm,6
3.2,LB,LBSPID,Perm,7
3.2,LB,LBTESTCD,Req,8
3.2,LB,LBTEST,Req,9
3.2,LB,LBCAT,Exp,10
3.2,LB,LBSCAT,Perm,11
3.2,LB,LBORRES,Exp,12
3.2,LB,LBORRESU,Exp,13
3.2,LB,LBORNRLO,Exp,14
3.2,LB,LBORNRHI,Exp,15
3.2,LB,LBSTRESC,Exp,16
3.2,LB,LBSTRESN,Exp,17
3.2,LB,LBSTRESU,Exp,18
3.2,LB,LBSTNRLO,Exp,19
3.2,LB,LBSTNRHI,Exp,20
3.2,LB,LBSTNRC,Perm,21
3.2,LB,LBNRIND,Exp,22
3.2,LB,LBSTAT,Perm,23
3.2,LB,LBREASND,Perm,24
3.2,LB,LBNAM,Perm,25
3.2,LB,LBLOINC,Perm,26
3.2,LB,LBSPEC,Perm,27
3.2,LB,LBSPCCND,Perm,28
3.2,LB,LBMETHOD,Perm,29
3.2,LB,LBBLFL,Exp,30
3.2,LB,LBFAST,Perm,31
3.2,LB,LBDRVFL,Perm,32
3.2,LB,LBTOX,Perm,33
3.2,LB,LBTOXGR,Perm,34
3.2,LB,VISITNUM,Exp,35
3.2,LB,VISIT,Perm,36
3.2,LB,VISITDY,Perm,37
3.2,LB,LBDTC,Exp,38
3.2,LB,LBENDTC,Perm,39
3.2,LB,LBDY,Perm,40
3.2,LB,LBTPT,Perm,41
3.2,LB,LBTPTNUM,Perm,42
3.2,LB,LBELTM,Perm,43
3.2,LB,LBTPTREF,Perm,44
3.2,LB,LBRFTDTC,Perm,45
3.2,MB,STUDYID,Req,1
3.2,MB,DOMAIN,Req,2
3.2,MB,USUBJID,Req,3
3.2,MB,MBSEQ,Req,4
3.2,MB,MBGRPID,Exp,5
3.2,MB,MBREFID,Perm,6
3.2,MB,MBSPID,Perm,7
3.2,MB,MBTESTCD,Req,8
3.2,MB,MBTEST,Req,9
3.2,MB,MBCAT,Perm,10
3.2,MB,MBSCAT,Perm,11
3.2,MB,MBORRES,Exp,12
3.2,MB,MBORRESU,Perm,13
3.2,MB,MBSTRESC,Exp,14
3.2,MB,MBSTRESN,Perm,15
3.2,MB,MBSTRESU,Perm,16
3.2,MB,MBRESCAT,Exp,17
3.2,MB,MBSTAT,Perm,18
3.2,MB,MBREASND,Perm,19
3.2,MB,MBNAM,Perm,20
3.2,MB,MBLOINC,Perm,21
3.2,MB,MBSPEC,Perm,22
3.2,MB,MBSPCCND,Perm,23
3.2,MB,MBLOC,Perm,24
3.2,MB,MBMETHOD,Exp,25
3.2,MB,MBBLFL,Perm,26
3.2,MB,MBDRVFL,Perm,27
3.2,MB,VISITNUM,Exp,28
3.2,MB,VISIT,Perm,29
3.2,MB,VISITDY,Perm,30
3.2,MB,MBDTC,Exp,31
3.2,MB,MBDY,Perm,32
3.2,MB,MBTPT,Perm,33
3.2,MB,MBTPTNUM,Perm,34
3.2,MB,MBELTM,Perm,35
3.2,MB,MBTPTREF,Perm,36
3.2,MB,MBRFTDTC,Perm,37
3.2,MS,STUDYID,Req,1
3.2,MS,DOMAIN,Req,2
3.2,MS,USUBJID,Req,3
3.2,MS,MSSEQ,Req,4
3.2,MS,MSGRPID,Req,5
3.2,MS,MSREFID,Perm,6
3.2,MS,MSSPID,Perm,7
3.2,MS,MSTESTCD,Req,8
3.2,MS,MSTEST,Req,9
3.2,MS,MSCAT,Req,10
3.2,MS,MSSCAT,Perm,11
3.2,MS,MSORRES,Exp,12
3.2,MS,MSORRESU,Exp,13
3.2,MS,MSSTRESC,Exp,14
3.2,MS,MSSTRESN,Exp,15
3.2,MS,MSSTRESU,Exp,16
3.2,MS,MSRESCAT,Exp,17
3.2,MS,MSSTAT,Perm,18
3.2,MS,MSREASND,Perm,19
3.2,MS,MSNAM,Perm,20
3.2,MS,MSLOINC,Perm,21
3.2,MS,MSMETHOD,Exp,22
3.2,MS,MSBLFL,Perm,23
3.2,MS,MSDRVFL,Perm,24
3.2,MS,VISITNUM,Exp,25
3.2,MS,VISIT,Perm,26
3.2,MS,VISITDY,Perm,27
3.2,MS,MSDTC,Perm,28
3.2,MS,MSDY,Perm,29
3.2,MS,MSTPT,Perm,30
3.2,MS,MSTPTNUM,Perm,31
3.2,MS,MSELTM,Perm,32
3.2,MS,MSTPTREF,Perm,33
3.2,MI,STUDYID,Req,1
3.2,MI,DOMAIN,Req,2
3.2,MI,USUBJID,Req,3
3.2,MI,MISEQ,Req,4
3.2,MI,MIGRPID,Perm,5
3.2,MI,MIREFID,Perm,6
3.2,MI,MISPID,Perm,7
3.2,MI,MITESTCD,Req,8
3.2,MI,MITEST,Req,9
3.2,MI,MITSTDTL,Perm,10
3.2,MI,MICAT,Perm,11
3.2,MI,MISCAT,Perm,12
3.2,MI,MIORRES,Exp,13
3.2,MI,MIORRESU,Perm,14
3.2,MI,MISTRESC,Exp,15
3.2,MI,MISTRESN,Perm,16
3.2,MI,MISTRESU,Perm,17
3.2,MI,MIRESCAT,Perm,18
3.2,MI,MISTAT,Perm,19
3.2,MI,MIREASND,Perm,20
3.2,MI,MINAM,Perm,21
3.2,MI,MISPEC,Req,22
3.2,MI,MISPCCND,Exp,23
3.2,MI,MILOC,Perm,24
3.2,MI,MILAT,Perm,25
3.2,MI,MIDIR,Perm,26
3.2,MI,MIMETHOD,Perm,27
3.2,MI,MIBLFL,Exp,28
3.2,MI,MIEVAL,Perm,29
3.2,MI,VISITNUM,Exp,30
3.2,MI,VISIT,Perm,31
3.2,MI,VISITDY,Perm,32
3.2,MI,MIDTC,Exp,33
3.2,MI,MIDY,Perm,34
3.2,MO,STUDYID,Req,1
3.2,MO,DOMAIN,Req,2
3.2,MO,USUBJID,Req,3
3.2,MO,MOSEQ,Req,4
3.2,MO,MOGRPID,Perm,5
3.2,MO,MOREFID,Perm,6
3.2,MO,MOSPID,Perm,7
3.2,MO,MOLNKID,Perm,8
3.2,MO,MOTESTCD,Req,9
3.2,MO,MOTEST,Req,10
3.2,MO,MOCAT,Perm,11
3.2,MO,MOSCAT,Perm,12
3.2,MO,MOPOS,Perm,13
3.2,MO,MOORRES,Exp,14
3.2,MO,MOORRESU,Perm,15
3.2,MO,MOSTRESC,Exp,16
3.2,MO,MOSTRESN,Perm,17
3.2,MO,MOSTRESU,Perm,18
3.2,MO,MOSTAT,Perm,19
3.2,MO,MOREASND,Perm,20
3.2,MO,MOXFN,Perm,21
3.2,MO,MONAM,Perm,22
3.2,MO,MOLOC,Perm,23
3.2,MO,MOLAT,Perm,24
3.2,MO,MODIR,Perm,25
3.2,MO,MOPORTOT,Perm,26
3.2,MO,MOMETHOD,Perm,27
3.2,MO,MOANMETH,Perm,28
3.2,MO,MOBLFL,Exp,29
3.2,MO,MODRVFL,Perm,30
3.2,MO,MOEVAL,Perm,31
3.2,MO,VISITNUM,Exp,32
3.2,MO,VISIT,Perm,33
3.2,MO,VISITDY,Perm,34
3.2,MO,MODTC,Exp,35
3.2,MO,MODY,Perm,36
3.2,MO,MOTPT,Perm,37
3.2,MO,MOTPTNUM,Perm,38
3.2,MO,MOELTM,Perm,39
3.2,MO,MOTPTREF,Perm,40
3.2,MO,MORFTDTC,Perm,41
3.2,PC,STUDYID,Req,1
3.2,PC,DOMAIN,Req,2
3.2,PC,USUBJID,Req,3
3.2,PC,PCSEQ,Req,4
3.2,PC,PCGRPID,Perm,5
3.2,PC,PCREFID,Perm,6
3.2,PC,PCSPID,Perm,7
3.2,PC,PCTESTCD,Req,8
3.2,PC,PCTEST,Req,9
3.2,PC,PCCAT,Perm,10
3.2,PC,PCSCAT,Perm,11
3.2,PC,PCORRES,Exp,12
3.2,PC,PCORRESU,Exp,13
3.2,PC,PCSTRESC,Exp,14
3.2,PC,PCSTRESN,Exp,15
3.2,PC,PCSTRESU,Exp,16
3.2,PC,PCSTAT,Perm,17
3.2,PC,PCREASND,Perm,18
3.2,PC,PCNAM,Exp,19
3.2,PC,PCSPEC,Exp,20
3.2,PC,PCSPCCND,Perm,21
3.2,PC,PCMETHOD,Perm,22
3.2,PC,PCFAST,Perm,23
3.2,PC,PCDRVFL,Perm,24
3.2,PC,PCLLOQ,Exp,25
3.2,PC,PCULOQ,Perm,26
3.2,PC,VISITNUM,Exp,27
3.2,PC,VISIT,Perm,28
3.2,PC,VISITDY,Perm,29
3.2,PC,PCDTC,Exp,30
3.2,PC,PCENDTC,Perm,31
3.2,PC,PCDY,Perm,32
3.2,PC,PCTPT,Perm,33
3.2,PC,PCTPTNUM,Perm,34
3.2,PC,PCELTM,Perm,35
3.2,PC,PCTPTREF,Perm,36
3.2,PC,PCRFTDTC,Perm,37
3.2,PC,PCEVLINT,Perm,38
3.2,PP,STUDYID,Req,1
3.2,PP,DOMAIN,Req,2
3.2,PP,USUBJID,Req,3
3.2,PP,PPSEQ,Req,4
3.2,PP,PPGRPID,Perm,5
3.2,PP,PPTESTCD,Req,6
3.2,PP,PPTEST,Req,7
3.2,PP,PPCAT,Exp,8
3.2,PP,PPSCAT,Perm,9
3.2,PP,PPORRES,Exp,10
3.2,PP,PPORRESU,Exp,11
3.2,PP,PPSTRESC,Exp,12
3.2,PP,PPSTRESN,Exp,13
3.2,PP,PPSTRESU,Exp,14
3.2,PP,PPSTAT,Perm,15
3.2,PP,PPREASND,Perm,16
3.2,PP,PPSPEC,Exp,17
3.2,PP,PPDTC,Perm,18
3.2,PP,PPRFTDTC,Exp,19
3.2,PP,PPSTINT,Perm,20
3.2,PP,PPENINT,Perm,21
3.2,PE,STUDYID,Req,1
3.2,PE,DOMAIN,Req,2
3.2,PE,USUBJID,Req,3
3.2,PE,PESEQ,Req,4
3.2,PE,PEGRPID,Perm,5
3.2,PE,PESPID,Perm,6
3.2,PE,PETESTCD,Req,7
3.2,PE,PETEST,Req,8
3.2,PE,PEMODIFY,Perm,9
3.2,PE,PECAT,Perm,10
3.2,PE,PESCAT,Perm,11
3.2,PE,PEBODSYS,Perm,12
3.2,PE,PEORRES,Exp,13
3.2,PE,PEORRESU,Perm,14
3.2,PE,PESTRESC,Exp,15
3.2,PE,PESTAT,Perm,16
3.2,PE,PEREASND,Perm,17
3.2,PE,PELOC,Perm,18
3.2,PE,PEMETHOD,Perm,19
3.2,PE,PEEVAL,Perm,20
3.2,PE,VISITNUM,Exp,21
3.2,PE,VISIT,Perm,22
3.2,PE,VISITDY,Perm,23
3.2,PE,PEDTC,Exp,24
3.2,PE,PEDY,Perm,25
3.2,QS,STUDYID,Req,1
3.2,QS,DOMAIN,Req,2
3.2,QS,USUBJID,Req,3
3.2,QS,QSSEQ,Req,4
3.2,QS,QSGRPID,Perm,5
3.2,QS,QSSPID,Perm,6
3.2,QS,QSTESTCD,Req,7
3.2,QS,QSTEST,Req,8
3.2,QS,QSCAT,Req,9
3.2,QS,QSSCAT,Perm,10
3.2,QS,QSORRES,Exp,11
3.2,QS,QSORRESU,Perm,12
3.2,QS,QSSTRESC,Exp,13
3.2,QS,QSSTRESN,Perm,14
3.2,QS,QSSTRESU,Perm,15
3.2,QS,QSSTAT,Perm,16
3.2,QS,QSREASND,Perm,17
3.2,QS,QSBLFL,Exp,18
3.2,QS,QSDRVFL,Perm,19
3.2,QS,QSEVAL,Perm,20
3.2,QS,VISITNUM,Exp,21
3.2,QS,VISIT,Perm,22
3.2,QS,VISITDY,Perm,23
3.2,QS,QSDTC,Exp,24
3.2,QS,QSDY,Perm,25
3.2,QS,QSTPT,Perm,26
3.2,QS,QSTPTNUM,Perm,27
3.2,QS,QSELTM,Perm,28
3.2,QS,QSTPTREF,Perm,29
3.2,QS,QSRFTDTC,Perm,30
3.2,QS,QSEVLINT,Perm,31
3.2,RP,STUDYID,Req,1
3.2,RP,DOMAIN,Req,2
3.2,RP,USUBJID,Req,3
3.2,RP,RPSEQ,Req,4
3.2,RP,RPGRPID,Perm,5
3.2,RP,RPREFID,Perm,6
3.2,RP,RPSPID,Perm,7
3.2,RP,RPTESTCD,Req,8
3.2,RP,RPTEST,Req,9
3.2,RP,RPCAT,Perm,10
3.2,RP,RPSCAT,Perm,11
3.2,RP,RPORRES,Exp,12
3.2,RP,RPORRESU,Exp,13
3.2,RP,RPSTRESC,Exp,14
3.2,RP,RPSTRESN,Exp,15
3.2,RP,RPSTRESU,Exp,16
3.2,RP,RPSTAT,Perm,17
3.2,RP,RPREASND,Perm,18
3.2,RP,RPBLFL,Perm,19
3.2,RP,RPDRVFL,Perm,20
3.2,RP,VISITNUM,Perm,21
3.2,RP,VISIT,Perm,22
3.2,RP,VISITDY,Perm,23
3.2,RP,RPDTC,Exp,24
3.2,RP,RPDY,Perm,25
3.2,SC,STUDYID,Req,1
3.2,SC,DOMAIN,Req,2
3.2,SC,USUBJID,Req,3
3.2,SC,SCSEQ,Req,4
3.2,SC,SCGRPID,Perm,5
3.2,SC,SCSPID,Perm,6
3.2,SC,SCTESTCD,Req,7
3.2,SC,SCTEST,Req,8
3.2,SC,SCCAT,Perm,9
3.2,SC,SCSCAT,Perm,10
3.2,SC,SCORRES,Exp,11
3.2,SC,SCORRESU,Perm,12
3.2,SC,SCSTRESC,Exp,13
3.2,SC,SCSTRESN,Perm,14
3.2,SC,SCSTRESU,Perm,15
3.2,SC,SCSTAT,Perm,16
3.2,SC,SCREASND,Perm,17
3.2,SC,SCDTC,Perm,18
3.2,SC,SCDY,Perm,19
3.2,SS,STUDYID,Req,1
3.2,SS,DOMAIN,Req,2
3.2,SS,USUBJID,Req,3
3.2,SS,SSSEQ,Req,4
3.2,SS,SSGRPID,Perm,5
3.2,SS,SSSPID,Perm,6
3.2,SS,SSTESTCD,Req,7
3.2,SS,SSTEST,Req,8
3.2,SS,SSCAT,Perm,9
3.2,SS,SSSCAT,Perm,10
3.2,SS,SSORRES,Exp,11
3.2,SS,SSSTRESC,Exp,12
3.2,SS,SSSTAT,Perm,13
3.2,SS,SSREASND,Perm,14
3.2,SS,SSEVAL,Perm,15
3.2,SS,VISITNUM,Exp,16
3.2,SS,VISIT,Perm,17
3.2,SS,VISITDY,Perm,18
3.2,SS,SSDTC,Exp,19
3.2,SS,SSDY,Perm,20
3.2,TU,STUDYID,Req,1
3.2,TU,DOMAIN,Req,2
3.2,TU,USUBJID,Req,3
3.2,TU,TUSEQ,Req,4
3.2,TU,TUGRPID,Perm,5
3.2,TU,TUREFID,Perm,6
3.2,TU,TUSPID,Perm,7
3.2,TU,TULNKID,Exp,8
3.2,TU,TUTESTCD,Req,9
3.2,TU,TUTEST,Req,10
3.2,TU,TUORRES,Exp,11
3.2,TU,TUSTRESC,Exp,12
3.2,TU,TUNAM,Perm,13
3.2,TU,TULOC,Exp,14
3.2,TU,TULAT,Perm,15
3.2,TU,TUDIR,Perm,16
3.2,TU,TUPORTOT,Perm,17
3.2,TU,TUMETHOD,Exp,18
3.2,TU,TUEVAL,Exp,19
3.2,TU,TUEVALID,Perm,20
3.2,TU,TUACPTFL,Perm,21
3.2,TU,VISITNUM,Exp,22
3.2,TU,VISIT,Perm,23
3.2,TU,VISITDY,Perm,24
3.2,TU,EPOCH,Perm,25
3.2,TU,TUDTC,Exp,26
3.2,TU,TUDY,Perm,27
3.2,TR,STUDYID,Req,1
3.2,TR,DOMAIN,Req,2
3.2,TR,USUBJID,Req,3
3.2,TR,TRSEQ,Req,4
3.2,TR,TRGRPID,Perm,5
3.2,TR,TRREFID,Perm,6
3.2,TR,TRSPID,Perm,7
3.2,TR,TRLNKID,Exp,8
3.2,TR,TRLNKGRP,Perm,9
3.2,TR,TRTESTCD,Req,10
3.2,TR,TRTEST,Req,11
3.2,TR,TRORRES,Exp,12
3.2,TR,TRORRESU,Exp,13
3.2,TR,TRSTRESC,Exp,14
3.2,TR,TRSTRESN,Exp,15
3.2,TR,TRSTRESU,Exp,16
3.2,TR,TRSTAT,Perm,17
3.2,TR,TRREASND,Perm,18
3.2,TR,TRNAM,Perm,19
3.2,TR,TRMETHOD,Exp,20
3.2,TR,TREVAL,Exp,21
3.2,TR,TREVALID,Perm,22
3.2,TR,TRACPTFL,Perm,23
3.2,TR,VISITNUM,Exp,24
3.2,TR,VISIT,Perm,25
3.2,TR,VISITDY,Perm,26
3.2,TR,EPOCH,Perm,27
3.2,TR,TRDTC,Exp,28
3.2,TR,TRDY,Perm,29
3.2,RS,STUDYID,Req,1
3.2,RS,DOMAIN,Req,2
3.2,RS,USUBJID,Req,3
3.2,RS,RSSEQ,Req,4
3.2,RS,RSGRPID,Perm,5
3.2,RS,RSREFID,Perm,6
3.2,RS,RSSPID,Perm,7
3.2,RS,RSLNKID,Perm,8
3.2,RS,RSLNKGRP,Perm,9
3.2,RS,RSTESTCD,Req,10
3.2,RS,RSTEST,Req,11
3.2,RS,RSCAT,Exp,12
3.2,RS,RSORRES,Exp,13
3.2,RS,RSSTRESC,Exp,14
3.2,RS,RSSTAT,Perm,15
3.2,RS,RSREASND,Perm,16
3.2,RS,RSNAM,Perm,17
3.2,RS,RSEVAL,Exp,18
3.2,RS,RSEVALID,Perm,19
3.2,RS,RSACPTFL,Perm,20
3.2,RS,VISITNUM,Exp,21
3.2,RS,VISIT,Perm,22
3.2,RS,VISITDY,Perm,23
3.2,RS,EPOCH,Perm,24
3.2,RS,RSDTC,Exp,25
3.2,RS,RSDY,Perm,26
3.2,VS,STUDYID,Req,1
3.2,VS,DOMAIN,Req,2
3.2,VS,USUBJID,Req,3
3.2,VS,VSSEQ,Req,4
3.2,VS,VSGRPID,Perm,5
3.2,VS,VSSPID,Perm,6
3.2,VS,VSTESTCD,Req,7
3.2,VS,VSTEST,Req,8
3.2,VS,VSCAT,Perm,9
3.2,VS,VSSCAT,Perm,10
3.2,VS,VSPOS,Perm,11
3.2,VS,VSORRES,Exp,12
3.2,VS,VSORRESU,Exp,13
3.2,VS,VSSTRESC,Exp,14
3.2,VS,VSSTRESN,Exp,15
3.2,VS,VSSTRESU,Exp,16
3.2,VS,VSSTAT,Perm,17
3.2,VS,VSREASND,Perm,18
3.2,VS,VSLOC,Perm,19
3.2,VS,VSLAT,Perm,20
3.2,VS,VSBLFL,Exp,21
3.2,VS,VSDRVFL,Perm,22
3.2,VS,VISITNUM,Exp,23
3.2,VS,VISIT,Perm,24
3.2,VS,VISITDY,Perm,25
3.2,VS,VSDTC,Exp,26
3.2,VS,VSDY,Perm,27
3.2,VS,VSTPT,Perm,28
3.2,VS,VSTPTNUM,Perm,29
3.2,VS,VSELTM,Perm,30
3.2,VS,VSTPTREF,Perm,31
3.2,VS,VSRFTDTC,Perm,32
3.2,FA,STUDYID,Req,1
3.2,FA,DOMAIN,Req,2
3.2,FA,USUBJID,Req,3
3.2,FA,FASEQ,Req,4
3.2,FA,FAGRPID,Perm,5
3.2,FA,FASPID,Perm,6
3.2,FA,FATESTCD,Req,7
3.2,FA,FATEST,Req,8
3.2,FA,FAOBJ,Req,9
3.2,FA,FACAT,Perm,10
3.2,FA,FASCAT,Perm,11
3.2,FA,FAORRES,Exp,12
3.2,FA,FAORRESU,Perm,13
3.2,FA,FASTRESC,Exp,14
3.2,FA,FASTRESN,Perm,15
3.2,FA,FASTRESU,Perm,16
3.2,FA,FASTAT,Perm,17
3.2,FA,FAREASND,Perm,18
3.2,FA,FALOC,Perm,19
3.2,FA,FALAT,,20
3.2,FA,FABLFL,Perm,21
3.2,FA,FAEVAL,Perm,22
3.2,FA,VISITNUM,Exp,23
3.2,FA,VISIT,Perm,24
3.2,FA,VISITDY,Perm,25
3.2,FA,FADTC,Perm,26
3.2,FA,FADY,Perm,27
3.2,SR,STUDYID,Req,1
3.2,SR,DOMAIN,Req,2
3.2,SR,USUBJID,Req,3
3.2,SR,SRSEQ,Req,4
3.2,SR,SRGRPID,Perm,5
3.2,SR,SRREFID,Perm,6
3.2,SR,SRSPID,Perm,7
3.2,SR,SRTESTCD,Req,8
3.2,SR,SRTEST,Req,9
3.2,SR,SROBJ,Req,10
3.2,SR,SRCAT,Perm,11
3.2,SR,SRSCAT,Perm,12
3.2,SR,SRORRES,Exp,13
3.2,SR,SRORRESU,Exp,14
3.2,SR,SRSTRESC,Exp,15
3.2,SR,SRSTRESN,Exp,16
3.2,SR,SRSTRESU,Exp,17
3.2,SR,SRSTAT,Perm,18
3.2,SR,SRREASND,Perm,19
3.2,SR,SRNAM,Perm,20
3.2,SR,SRSPEC,Perm,21
3.2,SR,SRLOC,Perm,22
3.2,SR,SRLAT,Perm,23
3.2,SR,SRMETHOD,Perm,24
3.2,SR,SREVAL,Perm,25
3.2,SR,VISITNUM,Exp,26
3.2,SR,VISIT,Perm,27
3.2,SR,VISITDY,Perm,28
3.2,SR,SRDTC,Exp,29
3.2,SR,SRDY,Perm,30
3.2,SR,SRTPT,Perm,31
3.2,SR,SRTPTNUM,Perm,32
3.2,SR,SRELTM,Perm,33
3.2,SR,SRTPTREF,Perm,34
3.2,SR,SRRFTDTC,Perm,35
3.2,TA,STUDYID,Req,1
3.2,TA,DOMAIN,Req,2
3.2,TA,ARMCD,Req,3
3.2,TA,ARM,Req,4
3.2,TA,TAETORD,Req,5
3.2,TA,ETCD,Req,6
3.2,TA,ELEMENT,Perm,7
3.2,TA,TABRANCH,Exp,8
3.2,TA,TATRANS,Exp,9
3.2,TA,EPOCH,Req,10
3.2,TE,STUDYID,Req,1
3.2,TE,DOMAIN,Req,2
3.2,TE,ETCD,Req,3
3.2,TE,ELEMENT,Req,4
3.2,TE,TESTRL,Req,5
3.2,TE,TEENRL,Perm,6
3.2,TE,TEDUR,Perm,7
3.2,TV,STUDYID,Req,1
3.2,TV,DOMAIN,Req,2
3.2,TV,VISITNUM,Req,3
3.2,TV,VISIT,Perm,4
3.2,TV,VISITDY,Perm,5
3.2,TV,ARMCD,Exp,6
3.2,TV,ARM,Perm,7
3.2,TV,TVSTRL,Req,8
3.2,TV,TVENRL,Perm,9
3.2,TD,STUDYID,Req,1
3.2,TD,DOMAIN,Req,2
3.2,TD,TDORDER,Req,3
3.2,TD,TDANCVAR,Req,4
3.2,TD,TDSTOFF,Req,5
3.2,TD,TDTGTPAI,Req,6
3.2,TD,TDMINPAI,Req,7
3.2,TD,TDMAXPAI,Req,8
3.2,TD,TDNUMRPT,Req,9
3.2,TI,STUDYID,Req,1
3.2,TI,DOMAIN,Req,2
3.2,TI,IETESTCD,Req,3
3.2,TI,IETEST,Req,4
3.2,TI,IECAT,Req,5
3.2,TI,IESCAT,Perm,6
3.2,TI,TIRL,Perm,7
3.2,TI,TIVERS,Perm,8
3.2,TS,STUDYID,Req,1
3.2,TS,DOMAIN,Req,2
3.2,TS,TSSEQ,Req,3
3.2,TS,TSGRPID,Perm,4
3.2,TS,TSPARMCD,Req,5
3.2,TS,TSPARM,Req,6
3.2,TS,TSVAL,Exp,7
3.2,TS,TSVALNF,Perm,8
3.2,TS,TSVALCD,Exp,9
3.2,TS,TSVCDREF,Exp,10
3.2,TS,TSVCDVER,Exp,11
3.2,RELREC,STUDYID,Req,1
3.2,RELREC,RDOMAIN,Req,2
3.2,RELREC,USUBJID,Exp,3
3.2,RELREC,IDVAR,Req,4
3.2,RELREC,IDVARVAL,Exp,5
3.2,RELREC,RELTYPE,Exp,6
3.2,RELREC,RELID,Req,7
3.2,SUPPQUAL,STUDYID,Req,1
3.2,SUPPQUAL,RDOMAIN,Req,2
3.2,SUPPQUAL,USUBJID,Req,3
3.2,SUPPQUAL,IDVAR,Exp,4
3.2,SUPPQUAL,IDVARVAL,Exp,5
3.2,SUPPQUAL,QNAM,Req,6
3.2,SUPPQUAL,QLABEL,Req,7
3.2,SUPPQUAL,QVAL,Req,8
3.2,SUPPQUAL,QORIG,Req,9
3.2,SUPPQUAL,QEVAL,Exp,10
3.3,CO,STUDYID,Req,1
3.3,CO,DOMAIN,Req,2
3.3,CO,RDOMAIN,Perm,3
3.3,CO,USUBJID,Req,4
3.3,CO,COSEQ,Req,5
3.3,CO,IDVAR,Perm,6
3.3,CO,IDVARVAL,Perm,7
3.3,CO,COREF,Perm,8
3.3,CO,COVAL,Req,9
3.3,CO,COEVAL,Perm,10
3.3,CO,COEVALID,Perm,11
3.3,CO,CODTC,Perm,12
3.3,CO,CODY,Perm,13
3.3,DM,STUDYID,Req,1
3.3,DM,DOMAIN,Req,2
3.3,DM,USUBJID,Req,3
3.3,DM,SUBJID,Req,4
3.3,DM,RFSTDTC,Exp,5
3.3,DM,RFENDTC,Exp,6
3.3,DM,RFXSTDTC,Exp,7
3.3,DM,RFXENDTC,Exp,8
3.3,DM,RFICDTC,Exp,9
3.3,DM,RFPENDTC,Exp,10
3.3,DM,DTHDTC,Exp,11
3.3,DM,DTHFL,Exp,12
3.3,DM,SITEID,Req,13
3.3,DM,INVID,Perm,14
3.3,DM,INVNAM,Perm,15
3.3,DM,BRTHDTC,Perm,16
3.3,DM,AGE,Exp,17
3.3,DM,AGEU,Exp,18
3.3,DM,SEX,Req,19
3.3,DM,RACE,Exp,20
3.3,DM,ETHNIC,Perm,21
3.3,DM,ARMCD,Exp,22
3.3,DM,ARM,Exp,23
3.3,DM,ACTARMCD,Exp,24
3.3,DM,ACTARM,Exp,25
3.3,DM,ARMNRS,Exp,26
3.3,DM,ACTARMUD,Exp,27
3.3,DM,COUNTRY,Req,28
3.3,DM,DMDTC,Perm,29
3.3,DM,DMDY,Perm,30
3.3,SE,STUDYID,Req,1
3.3,SE,DOMAIN,Req,2
3.3,SE,USUBJID,Req,3
3.3,SE,SESEQ,Req,4
3.3,SE,ETCD,Req,5
3.3,SE,ELEMENT,Perm,6
3.3,SE,TAETORD,Perm,7
3.3,SE,EPOCH,Perm,8
3.3,SE,SESTDTC,Req,9
3.3,SE,SEENDTC,Exp,10
3.3,SE,SEUPDES,Perm,11
3.3,SM,STUDYID,Req,1
3.3,SM,DOMAIN,Req,2
3.3,SM,USUBJID,Req,3
3.3,SM,SMSEQ,Req,4
3.3,SM,MIDS,Req,5
3.3,SM,MIDSTYPE,Req,6
3.3,SM,SMSTDTC,Exp,7
3.3,SM,SMENDTC,Exp,8
3.3,SM,SMSTDY,Exp,9
3.3,SM,SMENDY,Exp,10
3.3,SV,STUDYID,Req,1
3.3,SV,DOMAIN,Req,2
3.3,SV,USUBJID,Req,3
3.3,SV,VISITNUM,Req,4
3.3,SV,VISIT,Perm,5
3.3,SV,VISITDY,Perm,6
3.3,SV,SVSTDTC,Exp,7
3.3,SV,SVENDTC,Exp,8
3.3,SV,SVSTDY,Perm,9
3.3,SV,SVENDY,Perm,10
3.3,SV,SVUPDES,Perm,11
3.3,AG,STUDYID,Req,1
3.3,AG,DOMAIN,Req,2
3.3,AG,USUBJID,Req,3
3.3,AG,AGSEQ,Req,4
3.3,AG,AGGRPID,Perm,5
3.3,AG,AGSPID,Perm,6
3.3,AG,AGLNKID,Perm,7
3.3,AG,AGLNKGRP,Perm,8
3.3,AG,AGTRT,Req,9
3.3,AG,AGMODIFY,Perm,10
3.3,AG,AGDECOD,Perm,11
3.3,AG,AGCAT,Perm,12
3.3,AG,AGSCAT,Perm,13
3.3,AG,AGPRESP,Perm,14
3.3,AG,AGOCCUR,Perm,15
3.3,AG,AGSTAT,Perm,16
3.3,AG,AGREASND,Perm,17
3.3,AG,AGCLAS,Perm,18
3.3,AG,AGCLASCD,Perm,19
3.3,AG,AGDOSE,Perm,20
3.3,AG,AGDOSTXT,Perm,21
3.3,AG,AGDOSU,Perm,22
3.3,AG,AGDOSFRM,Perm,23
3.3,AG,AGDOSFRQ,Perm,24
3.3,AG,AGROUTE,Perm,25
3.3,AG,VISITNUM,Exp,26
3.3,AG,VISIT,Perm,27
3.3,AG,VISITDY,Perm,28
3.3,AG,TAETORD,Perm,29
3.3,AG,EPOCH,Perm,30
3.3,AG,AGSTDTC,Perm,31
3.3,AG,AGENDTC,Perm,32
3.3,AG,AGSTDY,Perm,33
3.3,AG,AGENDY,Perm,34
3.3,AG,AGDUR,Perm,35
3.3,AG,AGSTRF,Perm,36
3.3,AG,AGENRF,Perm,37
3.3,AG,AGSTRTPT,Perm,38
3.3,AG,AGSTTPT,Perm,39
3.3,AG,AGENRTPT,Perm,40
3.3,AG,AGENTPT,Perm,41
3.3,CM,STUDYID,Req,1
3.3,CM,DOMAIN,Req,2
3.3,CM,USUBJID,Req,3
3.3,CM,CMSEQ,Req,4
3.3,CM,CMGRPID,Perm,5
3.3,CM,CMSPID,Perm,6
3.3,CM,CMTRT,Req,7
3.3,CM,CMMODIFY,Perm,8
3.3,CM,CMDECOD,Perm,9
3.3,CM,CMCAT,Perm,10
3.3,CM,CMSCAT,Perm,11
3.3,CM,CMPRESP,Perm,12
3.3,CM,CMOCCUR,Perm,13
3.3,CM,CMSTAT,Perm,14
3.3,CM,CMREASND,Perm,15
3.3,CM,CMINDC,Perm,16
3.3,CM,CMCLAS,Perm,17
3.3,CM,CMCLASCD,Perm,18
3.3,CM,CMDOSE,Perm,19
3.3,CM,CMDOSTXT,Perm,20
3.3,CM,CMDOSU,Perm,21
3.3,CM,CMDOSFRM,Perm,22
3.3,CM,CMDOSFRQ,Perm,23
3.3,CM,CMDOSTOT,Perm,24
3.3,CM,CMDOSRGM,Perm,25
3.3,CM,CMROUTE,Perm,26
3.3,CM,CMADJ,Perm,27
3.3,CM,CMRSDISC,Perm,28
3.3,CM,TAETORD,Perm,29
3.3,CM,EPOCH,Perm,30
3.3,CM,CMSTDTC,Perm,31
3.3,CM,CMENDTC,Perm,32
3.3,CM,CMSTDY,Perm,33
3.3,CM,CMENDY,Perm,34
3.3,CM,CMDUR,Perm,35
3.3,CM,CMSTRF,Perm,36
3.3,CM,CMENRF,Perm,37
3.3,CM,CMSTRTPT,Perm,38
3.3,CM,CMSTTPT,Perm,39
3.3,CM,CMENRTPT,Perm,40
3.3,CM,CMENTPT,Perm,41
3.3,EX,STUDYID,Req,1
3.3,EX,DOMAIN,Req,2
3.3,EX,USUBJID,Req,3
3.3,EX,EXSEQ,Req,4
3.3,EX,EXGRPID,Perm,5
3.3,EX,EXREFID,Perm,6
3.3,EX,EXSPID,Perm,7
3.3,EX,EXLNKID,Perm,8
3.3,EX,EXLNKGRP,Perm,9
3.3,EX,EXTRT,Req,10
3.3,EX,EXCAT,Perm,11
3.3,EX,EXSCAT,Perm,12
3.3,EX,EXDOSE,Exp,13
3.3,EX,EXDOSTXT,Perm,14
3.3,EX,EXDOSU,Exp,15
3.3,EX,EXDOSFRM,Exp,16
3.3,EX,EXDOSFRQ,Perm,17
3.3,EX,EXDOSRGM,Perm,18
3.3,EX,EXROUTE,Perm,19
3.3,EX,EXLOT,Perm,20
3.3,EX,EXLOC,Perm,21
3.3,EX,EXLAT,Perm,22
3.3,EX,EXDIR,Perm,23
3.3,EX,EXFAST,Perm,24
3.3,EX,EXADJ,Perm,25
3.3,EX,TAETORD,Perm,26
3.3,EX,EPOCH,Perm,27
3.3,EX,EXSTDTC,Exp,28
3.3,EX,EXENDTC,Exp,29
3.3,EX,EXSTDY,Perm,30
3.3,EX,EXENDY,Perm,31
3.3,EX,EXDUR,Perm,32
3.3,EX,EXTPT,Perm,33
3.3,EX,EXTPTNUM,Perm,34
3.3,EX,EXELTM,Perm,35
3.3,EX,EXTPTREF,Perm,36
3.3,EX,EXRFTDTC,Perm,37
3.3,EC,STUDYID,Req,1
3.3,EC,DOMAIN,Req,2
3.3,EC,USUBJID,Req,3
3.3,EC,ECSEQ,Req,4
3.3,EC,ECGRPID,Perm,5
3.3,EC,ECREFID,Perm,6
3.3,EC,ECSPID,Perm,7
3.3,EC,ECLNKID,Perm,8
3.3,EC,ECLNKGRP,Perm,9
3.3,EC,ECTRT,Req,10
3.3,EC,ECMOOD,Perm,11
3.3,EC,ECCAT,Perm,12
3.3,EC,ECSCAT,Perm,13
3.3,EC,ECPRESP,Perm,14
3.3,EC,ECOCCUR,Perm,15
3.3,EC,ECDOSE,Exp,16
3.3,EC,ECDOSTXT,Perm,17
3.3,EC,ECDOSU,Exp,18
3.3,EC,ECDOSFRM,Exp,19
3.3,EC,ECDOSFRQ,Perm,20
3.3,EC,ECDOSTOT,Perm,21
3.3,EC,ECDOSRGM,Perm,22
3.3,EC,ECROUTE,Perm,23
3.3,EC,ECLOT,Perm,24
3.3,EC,ECLOC,Perm,25
3.3,EC,ECLAT,Perm,26
3.3,EC,ECDIR,Perm,27
3.3,EC,ECPORTOT,Perm,28
3.3,EC,ECFAST,Perm,29
3.3,EC,ECPSTRG,Perm,30
3.3,EC,ECPSTRGU,Perm,31
3.3,EC,ECADJ,Perm,32
3.3,EC,TAETORD,Perm,33
3.3,EC,EPOCH,Perm,34
3.3,EC,ECSTDTC,Exp,35
3.3,EC,ECENDTC,Exp,36
3.3,EC,ECSTDY,Perm,37
3.3,EC,ECENDY,Perm,38
3.3,EC,ECDUR,Perm,39
3.3,EC,ECTPT,Perm,40
3.3,EC,ECTPTNUM,Perm,41
3.3,EC,ECELTM,Perm,42
3.3,EC,ECTPTREF,Perm,43
3.3,EC,ECRFTDTC,Perm,44
3.3,ML,STUDYID,Req,1
3.3,ML,DOMAIN,Req,2
3.3,ML,USUBJID,Req,3
3.3,ML,MLSEQ,Req,4
3.3,ML,MLGRPID,Perm,5
3.3,ML,MLSPID,Perm,6
3.3,ML,MLTRT,Req,7
3.3,ML,MLCAT,Perm,8
3.3,ML,MLSCAT,Perm,9
3.3,ML,MLPRESP,Perm,10
3.3,ML,MLOCCUR,Perm,11
3.3,ML,MLSTAT,Perm,12
3.3,ML,MLREASND,Perm,13
3.3,ML,MLDOSE,Perm,14
3.3,ML,MLDOSTXT,Perm,15
3.3,ML,MLDOSU,Perm,16
3.3,ML,MLDOSFRM,Perm,17
3.3,ML,VISITNUM,Perm,18
3.3,ML,VISIT,Perm,19
3.3,ML,VISITDY,Perm,20
3.3,ML,TAETORD,Perm,21
3.3,ML,EPOCH,Perm,22
3.3,ML,MLDTC,Perm,23
3.3,ML,MLSTDTC,Perm,24
3.3,ML,MLENDTC,Perm,25
3.3,ML,MLDY,Perm,26
3.3,ML,MLSTDY,Perm,27
3.3,ML,MLENDY,Perm,28
3.3,ML,MLDUR,Perm,29
3.3,ML,MLTPT,Perm,30
3.3,ML,MLTPTNUM,Perm,31
3.3,ML,MLELTM,Perm,32
3.3,ML,MLTPTREF,Perm,33
3.3,ML,MLRFTDTC,Perm,34
3.3,ML,MIDS,Perm,35
3.3,ML,RELMIDS,Perm,36
3.3,ML,MIDSDTC,Perm,37
3.3,PR,STUDYID,Req,1
3.3,PR,DOMAIN,Req,2
3.3,PR,USUBJID,Req,3
3.3,PR,PRSEQ,Req,4
3.3,PR,PRGRPID,Perm,5
3.3,PR,PRSPID,Perm,6
3.3,PR,PRLNKID,Perm,7
3.3,PR,PRLNKGRP,Perm,8
3.3,PR,PRTRT,Req,9
3.3,PR,PRDECOD,Perm,10
3.3,PR,PRCAT,Perm,11
3.3,PR,PRSCAT,Perm,12
3.3,PR,PRPRESP,Perm,13
3.3,PR,PROCCUR,Perm,14
3.3,PR,PRINDC,Perm,15
3.3,PR,PRDOSE,Perm,16
3.3,PR,PRDOSTXT,Perm,17
3.3,PR,PRDOSU,Perm,18
3.3,PR,PRDOSFRM,Perm,19
3.3,PR,PRDOSFRQ,Perm,20
3.3,PR,PRDOSRGM,Perm,21
3.3,PR,PRROUTE,Perm,22
3.3,PR,PRLOC,Perm,23
3.3,PR,PRLAT,Perm,24
3.3,PR,PRDIR,Perm,25
3.3,PR,PRPORTOT,Perm,26
3.3,PR,VISITNUM,Perm,27
3.3,PR,VISIT,Perm,28
3.3,PR,VISITDY,Perm,29
3.3,PR,TAETORD,Perm,30
3.3,PR,EPOCH,Perm,31
3.3,PR,PRSTDTC,Exp,32
3.3,PR,PRENDTC,Perm,33
3.3,PR,PRSTDY,Perm,34
3.3,PR,PRENDY,Perm,35
3.3,PR,PRDUR,Perm,36
3.3,PR,PRTPT,Perm,37
3.3,PR,PRTPTNUM,Perm,38
3.3,PR,PRELTM,Perm,39
3.3,PR,PRTPTREF,Perm,40
3.3,PR,PRRFTDTC,Perm,41
3.3,PR,PRSTRTPT,Perm,42
3.3,PR,PRSTTPT,Perm,43
3.3,PR,PRENRTPT,Perm,44
3.3,PR,PRENTPT,Perm,45
3.3,SU,STUDYID,Req,1
3.3,SU,DOMAIN,Req,2
3.3,SU,USUBJID,Req,3
3.3,SU,SUSEQ,Req,4
3.3,SU,SUGRPID,Perm,5
3.3,SU,SUSPID,Perm,6
3.3,SU,SUTRT,Req,7
3.3,SU,SUMODIFY,Perm,8
3.3,SU,SUDECOD,Perm,9
3.3,SU,SUCAT,Perm,10
3.3,SU,SUSCAT,Perm,11
3.3,SU,SUPRESP,Perm,12
3.3,SU,SUOCCUR,Perm,13
3.3,SU,SUSTAT,Perm,14
3.3,SU,SUREASND,Perm,15
3.3,SU,SUCLAS,Perm,16
3.3,SU,SUCLASCD,Perm,17
3.3,SU,SUDOSE,Perm,18
3.3,SU,SUDOSTXT,Perm,19
3.3,SU,SUDOSU,Perm,20
3.3,SU,SUDOSFRM,Perm,21
3.3,SU,SUDOSFRQ,Perm,22
3.3,SU,SUDOSTOT,Perm,23
3.3,SU,SUROUTE,Perm,24
3.3,SU,TAETORD,Perm,25
3.3,SU,EPOCH,Perm,26
3.3,SU,SUSTDTC,Perm,27
3.3,SU,SUENDTC,Perm,28
3.3,SU,SUSTDY,Perm,29
3.3,SU,SUENDY,Perm,30
3.3,SU,SUDUR,Perm,31
3.3,SU,SUSTRF,Perm,32
3.3,SU,SUENRF,Perm,33
3.3,SU,SUSTRTPT,Perm,34
3.3,SU,SUSTTPT,Perm,35
3.3,SU,SUENRTPT,Perm,36
3.3,SU,SUENTPT,Perm,37
3.3,AE,STUDYID,Req,1
3.3,AE,DOMAIN,Req,2
3.3,AE,USUBJID,Req,3
3.3,AE,AESEQ,Req,4
3.3,AE,AEGRPID,Perm,5
3.3,AE,AEREFID,Perm,6
3.3,AE,AESPID,Perm,7
3.3,AE,AETERM,Req,8
3.3,AE,AEMODIFY,Perm,9
3.3,AE,AELLT,Exp,10
3.3,AE,AELLTCD,Exp,11
3.3,AE,AEDECOD,Req,12
3.3,AE,AEPTCD,Exp,13
3.3,AE,AEHLT,Exp,14
3.3,AE,AEHLTCD,Exp,15
3.3,AE,AEHLGT,Exp,16
3.3,AE,AEHLGTCD,Exp,17
3.3,AE,AECAT,Perm,18
3.3,AE,AESCAT,Perm,19
3.3,AE,AEPRESP,Perm,20
3.3,AE,AEBODSYS,Exp,21
3.3,AE,AEBDSYCD,Exp,22
3.3,AE,AESOC,Exp,23
3.3,AE,AESOCCD,Exp,24
3.3,AE,AELOC,Perm,25
3.3,AE,AESEV,Perm,26
3.3,AE,AESER,Exp,27
3.3,AE,AEACN,Exp,28
3.3,AE,AEACNOTH,Perm,29
3.3,AE,AEREL,Exp,30
3.3,AE,AERELNST,Perm,31
3.3,AE,AEPATT,Perm,32
3.3,AE,AEOUT,Perm,33
3.3,AE,AESCAN,Perm,34
3.3,AE,AESCONG,Perm,35
3.3,AE,AESDISAB,Perm,36
3.3,AE,AESDTH,Perm,37
3.3,AE,AESHOSP,Perm,38
3.3,AE,AESLIFE,Perm,39
3.3,AE,AESOD,Perm,40
3.3,AE,AESMIE,Perm,41
3.3,AE,AECONTRT,Perm,42
3.3,AE,AETOXGR,Perm,43
3.3,AE,TAETORD,Perm,44
3.3,AE,EPOCH,Perm,45
3.3,AE,AESTDTC,Exp,46
3.3,AE,AEENDTC,Exp,47
3.3,AE,AESTDY,Perm,48
3.3,AE,AEENDY,Perm,49
3.3,AE,AEDUR,Perm,50
3.3,AE,AEENRF,Perm,51
3.3,AE,AEENRTPT,Perm,52
3.3,AE,AEENTPT,Perm,53
3.3,CE,STUDYID,Req,1
3.3,CE,DOMAIN,Req,2
3.3,CE,USUBJID,Req,3
3.3,CE,CESEQ,Req,4
3.3,CE,CEGRPID,Perm,5
3.3,CE,CEREFID,Perm,6
3.3,CE,CESPID,Perm,7
3.3,CE,CETERM,Req,8
3.3,CE,CEDECOD,Perm,9
3.3,CE,CECAT,Perm,10
3.3,CE,CESCAT,Perm,11
3.3,CE,CEPRESP,Perm,12
3.3,CE,CEOCCUR,Perm,13
3.3,CE,CESTAT,Perm,14
3.3,CE,CEREASND,Perm,15
3.3,CE,CEBODSYS,Perm,16
3.3,CE,CESEV,Perm,17
3.3,CE,TAETORD,Perm,18
3.3,CE,EPOCH,Perm,19
3.3,CE,CEDTC,Perm,20
3.3,CE,CESTDTC,Perm,21
3.3,CE,CEENDTC,Perm,22
3.3,CE,CEDY,Perm,23
3.3,CE,CESTDY,Perm,24
3.3,CE,CEENDY,Perm,25
3.3,CE,CESTRF,Perm,26
3.3,CE,CEENRF,Perm,27
3.3,CE,CESTRTPT,Perm,28
3.3,CE,CESTTPT,Perm,29
3.3,CE,CEENRTPT,Perm,30
3.3,CE,CEENTPT,Perm,31
3.3,DS,STUDYID,Req,1
3.3,DS,DOMAIN,Req,2
3.3,DS,USUBJID,Req,3
3.3,DS,DSSEQ,Req,4
3.3,DS,DSGRPID,Perm,5
3.3,DS,DSREFID,Perm,6
3.3,DS,DSSPID,Perm,7
3.3,DS,DSTERM,Req,8
3.3,DS,DSDECOD,Req,9
3.3,DS,DSCAT,Exp,10
3.3,DS,DSSCAT,Perm,11
3.3,DS,EPOCH,Perm,12
3.3,DS,DSDTC,Perm,13
3.3,DS,DSSTDTC,Exp,14
3.3,DS,DSDY,Exp,15
3.3,DS,DSSTDY,Perm,16
3.3,DV,STUDYID,Req,1
3.3,DV,DOMAIN,Req,2
3.3,DV,USUBJID,Req,3
3.3,DV,DVSEQ,Req,4
3.3,DV,DVREFID,Perm,5
3.3,DV,DVSPID,Perm,6
3.3,DV,DVTERM,Req,7
3.3,DV,DVDECOD,Perm,8
3.3,DV,DVCAT,Perm,9
3.3,DV,DVSCAT,Perm,10
3.3,DV,TAETORD,Perm,11
3.3,DV,EPOCH,Perm,12
3.3,DV,DVSTDTC,Perm,13
3.3,DV,DVENDTC,Perm,14
3.3,DV,DVSTDY,Perm,15
3.3,DV,DVENDY,Perm,16
3.3,HO,STUDYID,Req,1
3.3,HO,DOMAIN,Req,2
3.3,HO,USUBJID,Req,3
3.3,HO,HOSEQ,Req,4
3.3,HO,HOGRPID,Perm,5
3.3,HO,HOREFID,Perm,6
3.3,HO,HOSPID,Perm,7
3.3,HO,HOTERM,Req,8
3.3,HO,HODECOD,Perm,9
3.3,HO,HOCAT,Perm,10
3.3,HO,HOSCAT,Perm,11
3.3,HO,HOPRESP,Perm,12
3.3,HO,HOOCCUR,Perm,13
3.3,HO,HOSTAT,Perm,14
3.3,HO,HOREASND,Perm,15
3.3,HO,TAETORD,Perm,16
3.3,HO,EPOCH,Perm,17
3.3,HO,HODTC,Perm,18
3.3,HO,HOSTDTC,Exp,19
3.3,HO,HOENDTC,Perm,20
3.3,HO,HODY,Perm,21
3.3,HO,HOSTDY,Perm,22
3.3,HO,HOENDY,Perm,23
3.3,HO,HODUR,Perm,24
3.3,HO,HOSTRTPT,Perm,25
3.3,HO,HOSTTPT,Perm,26
3.3,HO,HOENRTPT,Perm,27
3.3,HO,HOENTPT,Perm,28
3.3,MH,STUDYID,Req,1
3.3,MH,DOMAIN,Req,2
3.3,MH,USUBJID,Req,3
3.3,MH,MHSEQ,Req,4
3.3,MH,MHGRPID,Perm,5
3.3,MH,MHREFID,Perm,6
3.3,MH,MHSPID,Perm,7
3.3,MH,MHTERM,Req,8
3.3,MH,MHMODIFY,Perm,9
3.3,MH,MHDECOD,Perm,10
3.3,MH,MHEVDTYP,Perm,11
3.3,MH,MHCAT,Perm,12
3.3,MH,MHSCAT,Perm,13
3.3,MH,MHPRESP,Perm,14
3.3,MH,MHOCCUR,Perm,15
3.3,MH,MHSTAT,Perm,16
3.3,MH,MHREASND,Perm,17
3.3,MH,MHBODSYS,Perm,18
3.3,MH,TAETORD,Perm,19
3.3,MH,EPOCH,Perm,20
3.3,MH,MHDTC,Perm,21
3.3,MH,MHSTDTC,Perm,22
3.3,MH,MHENDTC,Perm,23
3.3,MH,MHDY,Perm,24
3.3,MH,MHENRF,Perm,25
3.3,MH,MHENRTPT,Perm,26
3.3,MH,MHENTPT,Perm,27
3.3,DA,STUDYID,Req,1
3.3,DA,DOMAIN,Req,2
3.3,DA,USUBJID,Req,3
3.3,DA,DASEQ,Req,4
3.3,DA,DAGRPID,Perm,5
3.3,DA,DAREFID,Perm,6
3.3,DA,DASPID,Perm,7
3.3,DA,DATESTCD,Req,8
3.3,DA,DATEST,Req,9
3.3,DA,DACAT,Perm,10
3.3,DA,DASCAT,Perm,11
3.3,DA,DAORRES,Exp,12
3.3,DA,DAORRESU,Perm,13
3.3,DA,DASTRESC,Exp,14
3.3,DA,DASTRESN,Perm,15
3.3,DA,DASTRESU,Perm,16
3.3,DA,DASTAT,Perm,17
3.3,DA,DAREASND,Perm,18
3.3,DA,VISITNUM,Exp,19
3.3,DA,VISIT,Perm,20
3.3,DA,VISITDY,Perm,21
3.3,DA,TAETORD,Perm,22
3.3,DA,EPOCH,Perm,23
3.3,DA,DADTC,Exp,24
3.3,DA,DADY,Perm,25
3.3,DD,STUDYID,Req,1
3.3,DD,DOMAIN,Req,2
3.3,DD,USUBJID,Req,3
3.3,DD,DDSEQ,Req,4
3.3,DD,DDTESTCD,Req,5
3.3,DD,DDTEST,Req,6
3.3,DD,DDORRES,Exp,7
3.3,DD,DDSTRESC,Exp,8
3.3,DD,DDRESCAT,Perm,9
3.3,DD,DDEVAL,Perm,10
3.3,DD,DDDTC,Exp,11
3.3,DD,DDDY,Perm,12
3.3,EG,STUDYID,Req,1
3.3,EG,DOMAIN,Req,2
3.3,EG,USUBJID,Req,3
3.3,EG,SPDEVID,Perm,4
3.3,EG,EGSEQ,Req,5
3.3,EG,EGGRPID,Perm,6
3.3,EG,EGREFID,Perm,7
3.3,EG,EGSPID,Perm,8
3.3,EG,EGTESTCD,Req,9
3.3,EG,EGTEST,Req,10
3.3,EG,EGCAT,Perm,11
3.3,EG,EGSCAT,Perm,12
3.3,EG,EGPOS,Perm,13
3.3,EG,EGBEATNO,Perm,14
3.3,EG,EGORRES,Exp,15
3.3,EG,EGORRESU,Perm,16
3.3,EG,EGSTRESC,Exp,17
3.3,EG,EGSTRESN,Perm,18
3.3,EG,EGSTRESU,Perm,19
3.3,EG,EGSTAT,Perm,20
3.3,EG,EGREASND,Perm,21
3.3,EG,EGXFN,Perm,22
3.3,EG,EGNAM,Perm,23
3.3,EG,EGMETHOD,Perm,24
3.3,EG,EGLEAD,Perm,25
3.3,EG,EGLOBXFL,Exp,26
3.3,EG,EGBLFL,Perm,27
3.3,EG,EGDRVFL,Perm,28
3.3,EG,EGEVAL,Perm,29
3.3,EG,EGEVALID,Perm,30
3.3,EG,EGREPNUM,Perm,31
3.3,EG,VISITNUM,Exp,32
3.3,EG,VISIT,Perm,33
3.3,EG,VISITDY,Perm,34
3.3,EG,TAETORD,Perm,35
3.3,EG,EPOCH,Perm,36
3.3,EG,EGDTC,Exp,37
3.3,EG,EGDY,Perm,38
3.3,EG,EGTPT,Perm,39
3.3,EG,EGTPTNUM,Perm,40
3.3,EG,EGELTM,Perm,41
3.3,EG,EGTPTREF,Perm,42
3.3,EG,EGRFTDTC,Perm,43
3.3,IE,STUDYID,Req,1
3.3,IE,DOMAIN,Req,2
3.3,IE,USUBJID,Req,3
3.3,IE,IESEQ,Req,4
3.3,IE,IESPID,Perm,5
3.3,IE,IETESTCD,Req,6
3.3,IE,IETEST,Req,7
3.3,IE,IECAT,Req,8
3.3,IE,IESCAT,Perm,9
3.3,IE,IEORRES,Req,10
3.3,IE,IESTRESC,Req,11
3.3,IE,VISITNUM,Perm,12
3.3,IE,VISIT,Perm,13
3.3,IE,VISITDY,Perm,14
3.3,IE,TAETORD,Perm,15
3.3,IE,EPOCH,Perm,16
3.3,IE,IEDTC,Perm,17
3.3,IE,IEDY,Perm,18
3.3,IS,STUDYID,Req,1
3.3,IS,DOMAIN,Req,2
3.3,IS,USUBJID,Req,3
3.3,IS,ISSEQ,Req,4
3.3,IS,ISGRPID,Perm,5
3.3,IS,ISREFID,Perm,6
3.3,IS,ISSPID,Perm,7
3.3,IS,ISTESTCD,Req,8
3.3,IS,ISTEST,Req,9
3.3,IS,ISCAT,Perm,10
3.3,IS,ISSCAT,Perm,11
3.3,IS,ISORRES,Exp,12
3.3,IS,ISORRESU,Exp,13
3.3,IS,ISSTRESC,Exp,14
3.3,IS,ISSTRESN,Exp,15
3.3,IS,ISSTRESU,Exp,16
3.3,IS,ISSTAT,Perm,17
3.3,IS,ISREASND,Perm,18
3.3,IS,ISNAM,Perm,19
3.3,IS,ISSPEC,Perm,20
3.3,IS,ISMETHOD,Perm,21
3.3,IS,ISLOBXFL,Perm,22
3.3,IS,ISBLFL,Perm,23
3.3,IS,ISLLOQ,Exp,24
3.3,IS,VISITNUM,Exp,25
3.3,IS,VISIT,Perm,26
3.3,IS,VISITDY,Perm,27
3.3,IS,TAETORD,Perm,28
3.3,IS,EPOCH,Perm,29
3.3,IS,ISDTC,Exp,30
3.3,IS,ISDY,Perm,31
3.3,LB,STUDYID,Req,1
3.3,LB,DOMAIN,Req,2
3.3,LB,USUBJID,Req,3
3.3,LB,LBSEQ,Req,4
3.3,LB,LBGRPID,Perm,5
3.3,LB,LBREFID,Perm,6
3.3,LB,LBSPID,Perm,7
3.3,LB,LBTESTCD,Req,8
3.3,LB,LBTEST,Req,9
3.3,LB,LBCAT,Exp,10
3.3,LB,LBSCAT,Perm,11
3.3,LB,LBORRES,Exp,12
3.3,LB,LBORRESU,Exp,13
3.3,LB,LBORNRLO,Exp,14
3.3,LB,LBORNRHI,Exp,15
3.3,LB,LBSTRESC,Exp,16
3.3,LB,LBSTRESN,Exp,17
3.3,LB,LBSTRESU,Exp,18
3.3,LB,LBSTNRLO,Exp,19
3.3,LB,LBSTNRHI,Exp,20
3.3,LB,LBSTNRC,Perm,21
3.3,LB,LBSTREFC,Exp,22
3.3,LB,LBNRIND,Exp,23
3.3,LB,LBSTAT,Perm,24
3.3,LB,LBREASND,Perm,25
3.3,LB,LBNAM,Perm,26
3.3,LB,LBLOINC,Perm,27
3.3,LB,LBSPEC,Perm,28
3.3,LB,LBSPCCND,Perm,29
3.3,LB,LBMETHOD,Perm,30
3.3,LB,LBLOBXFL,Exp,31
3.3,LB,LBBLFL,Perm,32
3.3,LB,LBFAST,Perm,33
3.3,LB,LBDRVFL,Perm,34
3.3,LB,LBTOX,Perm,35
3.3,LB,LBTOXGR,Perm,36
3.3,LB,VISITNUM,Exp,37
3.3,LB,VISIT,Perm,38
3.3,LB,VISITDY,Perm,39
3.3,LB,TAETORD,Perm,40
3.3,LB,EPOCH,Perm,41
3.3,LB,LBDTC,Exp,42
3.3,LB,LBENDTC,Perm,43
3.3,LB,LBDY,Perm,44
3.3,LB,LBENDY,Perm,45
3.3,LB,LBTPT,Perm,46
3.3,LB,LBTPTNUM,Perm,47
3.3,LB,LBELTM,Perm,48
3.3,LB,LBTPTREF,Perm,49
3.3,LB,LBRFTDTC,Perm,50
3.3,MB,STUDYID,Req,1
3.3,MB,DOMAIN,Req,2
3.3,MB,USUBJID,Req,3
3.3,MB,FOCID,Perm,4
3.3,MB,MBSEQ,Req,5
3.3,MB,MBGRPID,Perm,6
3.3,MB,MBREFID,Perm,7
3.3,MB,MBSPID,Perm,8
3.3,MB,MBLNKID,Perm,9
3.3,MB,MBLNKGRP,Perm,10
3.3,MB,MBTESTCD,Req,11
3.3,MB,MBTEST,Req,12
3.3,MB,MBTSTDTL,Perm,13
3.3,MB,MBCAT,Perm,14
3.3,MB,MBSCAT,Perm,15
3.3,MB,MBORRES,Exp,16
3.3,MB,MBORRESU,Perm,17
3.3,MB,MBSTRESC,Exp,18
3.3,MB,MBSTRESN,Perm,19
3.3,MB,MBSTRESU,Perm,20
3.3,MB,MBRESCAT,Perm,21
3.3,MB,MBSTAT,Perm,22
3.3,MB,MBREASND,Perm,23
3.3,MB,MBNAM,Perm,24
3.3,MB,MBLOINC,Perm,25
3.3,MB,MBSPEC,Perm,26
3.3,MB,MBSPCCND,Perm,27
3.3,MB,MBLOC,Perm,28
3.3,MB,MBLAT,Perm,29
3.3,MB,MBDIR,Perm,30
3.3,MB,MBMETHOD,Exp,31
3.3,MB,MBLOBXFL,Perm,32
3.3,MB,MBBLFL,Perm,33
3.3,MB,MBFAST,Perm,34
3.3,MB,MBDRVFL,Perm,35
3.3,MB,VISITNUM,Exp,36
3.3,MB,VISIT,Perm,37
3.3,MB,VISITDY,Perm,38
3.3,MB,TAETORD,Perm,39
3.3,MB,EPOCH,Perm,40
3.3,MB,MBDTC,Exp,41
3.3,MB,MBDY,Perm,42
3.3,MB,MBTPT,Perm,43
3.3,MB,MBTPTNUM,Perm,44
3.3,MB,MBELTM,Perm,45
3.3,MB,MBTPTREF,Perm,46
3.3,MB,MBRFTDTC,Perm,47
3.3,MS,STUDYID,Req,1
3.3,MS,DOMAIN,Req,2
3.3,MS,USUBJID,Req,3
3.3,MS,NHOID,Perm,4
3.3,MS,MSSEQ,Req,5
3.3,MS,MSGRPID,Perm,6
3.3,MS,MSREFID,Perm,7
3.3,MS,MSSPID,Perm,8
3.3,MS,MSLNKID,Perm,9
3.3,MS,MSTESTCD,Req,10
3.3,MS,MSTEST,Req,11
3.3,MS,MSTSTDTL,Perm,12
3.3,MS,MSAGENT,Exp,13
3.3,MS,MSMODIFY,Perm,14
3.3,MS,MSCONC,Perm,15
3.3,MS,MSCONCU,Perm,16
3.3,MS,MSCAT,Perm,17
3.3,MS,MSSCAT,Perm,18
3.3,MS,MSORRES,Exp,19
3.3,MS,MSORRESU,Perm,20
3.3,MS,MSSTRESC,Exp,21
3.3,MS,MSSTRESN,Perm,22
3.3,MS,MSSTRESU,Perm,23
3.3,MS,MSNRIND,Perm,24
3.3,MS,MSRESCAT,Perm,25
3.3,MS,MSSTAT,Perm,26
3.3,MS,MSREASND,Perm,27
3.3,MS,MSXFN,Perm,28
3.3,MS,MSNAM,Perm,29
3.3,MS,MSLOINC,Perm,30
3.3,MS,MSSPEC,Perm,31
3.3,MS,MSSPCCND,Perm,32
3.3,MS,MSSPCUFL,Perm,33
3.3,MS,MSLOC,Perm,34
3.3,MS,MSLAT,Perm,35
3.3,MS,MSDIR,Perm,36
3.3,MS,MSMETHOD,Perm,37
3.3,MS,MSANMETH,Perm,38
3.3,MS,MSLOBXFL,Perm,39
3.3,MS,MSBLFL,Perm,40
3.3,MS,MSFAST,Perm,41
3.3,MS,MSDRVFL,Perm,42
3.3,MS,MSEVAL,Perm,43
3.3,MS,MSEVALID,Perm,44
3.3,MS,MSACPTFL,Perm,45
3.3,MS,MSLLOQ,Perm,46
3.3,MS,MSULOQ,Perm,47
3.3,MS,MSREPNUM,Perm,48
3.3,MS,VISITNUM,Exp,49
3.3,MS,VISIT,Perm,50
3.3,MS,VISITDY,Perm,51
3.3,MS,TAETORD,Perm,52
3.3,MS,EPOCH,Perm,53
3.3,MS,MSDTC,Perm,54
3.3,MS,MSENDTC,Perm,55
3.3,MS,MSDY,Perm,56
3.3,MS,MSENDY,Perm,57
3.3,MS,MSDUR,Perm,58
3.3,MS,MSTPT,Perm,59
3.3,MS,MSTPTNUM,Perm,60
3.3,MS,MSELTM,Perm,61
3.3,MS,MSTPTREF,Perm,62
3.3,MS,MSRFTDTC,Perm,63
3.3,MS,MSSTRF,Perm,64
3.3,MS,MSENRF,Perm,65
3.3,MS,MSEVLINT,Perm,66
3.3,MS,MSEVINTX,Perm,67
3.3,MS,MSSTRTPT,Perm,68
3.3,MS,MSSTTPT,Perm,69
3.3,MS,MSENRTPT,Perm,70
3.3,MS,MSENTPT,Perm,71
3.3,MI,STUDYID,Req,1
3.3,MI,DOMAIN,Req,2
3.3,MI,USUBJID,Req,3
3.3,MI,MISEQ,Req,4
3.3,MI,MIGRPID,Perm,5
3.3,MI,MIREFID,Perm,6
3.3,MI,MISPID,Perm,7
3.3,MI,MITESTCD,Req,8
3.3,MI,MITEST,Req,9
3.3,MI,MITSTDTL,Perm,10
3.3,MI,MICAT,Perm,11
3.3,MI,MISCAT,Perm,12
3.3,MI,MIORRES,Exp,13
3.3,MI,MIORRESU,Perm,14
3.3,MI,MISTRESC,Exp,15
3.3,MI,MISTRESN,Perm,16
3.3,MI,MISTRESU,Perm,17
3.3,MI,MIRESCAT,Perm,18
3.3,MI,MISTAT,Perm,19
3.3,MI,MIREASND,Perm,20
3.3,MI,MINAM,Perm,21
3.3,MI,MISPEC,Req,22
3.3,MI,MISPCCND,Exp,23
3.3,MI,MILOC,Perm,24
3.3,MI,MILAT,Perm,25
3.3,MI,MIDIR,Perm,26
3.3,MI,MIMETHOD,Perm,27
3.3,MI,MILOBXFL,Perm,28
3.3,MI,MIBLFL,Exp,29
3.3,MI,MIEVAL,Perm,30
3.3,MI,VISITNUM,Exp,31
3.3,MI,VISIT,Perm,32
3.3,MI,VISITDY,Perm,33
3.3,MI,TAETORD,Perm,34
3.3,MI,EPOCH,Perm,35
3.3,MI,MIDTC,Exp,36
3.3,MI,MIDY,Perm,37
3.3,MO,STUDYID,Req,1
3.3,MO,DOMAIN,Req,2
3.3,MO,USUBJID,Req,3
3.3,MO,MOSEQ,Req,4
3.3,MO,MOGRPID,Perm,5
3.3,MO,MOREFID,Perm,6
3.3,MO,MOSPID,Perm,7
3.3,MO,MOLNKID,Perm,8
3.3,MO,MOTESTCD,Req,9
3.3,MO,MOTEST,Req,10
3.3,MO,MOCAT,Perm,11
3.3,MO,MOSCAT,Perm,12
3.3,MO,MOPOS,Perm,13
3.3,MO,MOORRES,Exp,14
3.3,MO,MOORRESU,Perm,15
3.3,MO,MOSTRESC,Exp,16
3.3,MO,MOSTRESN,Perm,17
3.3,MO,MOSTRESU,Perm,18
3.3,MO,MOSTAT,Perm,19
3.3,MO,MOREASND,Perm,20
3.3,MO,MOXFN,Perm,21
3.3,MO,MONAM,Perm,22
3.3,MO,MOLOC,Perm,23
3.3,MO,MOLAT,Perm,24
3.3,MO,MODIR,Perm,25
3.3,MO,MOPORTOT,Perm,26
3.3,MO,MOMETHOD,Perm,27
3.3,MO,MOANMETH,Perm,28
3.3,MO,MOLOBXFL,Perm,29
3.3,MO,MOBLFL,Exp,30
3.3,MO,MODRVFL,Perm,31
3.3,MO,MOEVAL,Perm,32
3.3,MO,VISITNUM,Exp,33
3.3,MO,VISIT,Perm,34
3.3,MO,VISITDY,Perm,35
3.3,MO,TAETORD,Perm,36
3.3,MO,EPOCH,Perm,37
3.3,MO,MODTC,Exp,38
3.3,MO,MODY,Perm,39
3.3,MO,MOTPT,Perm,40
3.3,MO,MOTPTNUM,Perm,41
3.3,MO,MOELTM,Perm,42
3.3,MO,MOTPTREF,Perm,43
3.3,MO,MORFTDTC,Perm,44
3.3,CV,STUDYID,Req,1
3.3,CV,DOMAIN,Req,2
3.3,CV,USUBJID,Req,3
3.3,CV,CVSEQ,Req,4
3.3,CV,CVGRPID,Perm,5
3.3,CV,CVREFID,Perm,6
3.3,CV,CVSPID,Perm,7
3.3,CV,CVLNKID,Perm,8
3.3,CV,CVLNKGRP,Perm,9
3.3,CV,CVTESTCD,Req,10
3.3,CV,CVTEST,Req,11
3.3,CV,CVCAT,Perm,12
3.3,CV,CVSCAT,Perm,13
3.3,CV,CVPOS,Perm,14
3.3,CV,CVORRES,Exp,15
3.3,CV,CVORRESU,Perm,16
3.3,CV,CVSTRESC,Exp,17
3.3,CV,CVSTRESN,Perm,18
3.3,CV,CVSTRESU,Perm,19
3.3,CV,CVSTAT,Perm,20
3.3,CV,CVREASND,Perm,21
3.3,CV,CVLOC,Perm,22
3.3,CV,CVLAT,Perm,23
3.3,CV,CVDIR,Perm,24
3.3,CV,CVMETHOD,Perm,25
3.3,CV,CVLOBXFL,Exp,26
3.3,CV,CVBLFL,Perm,27
3.3,CV,CVDRVFL,Perm,28
3.3,CV,CVEVAL,Perm,29
3.3,CV,CVEVALID,Perm,30
3.3,CV,VISITNUM,Exp,31
3.3,CV,VISIT,Perm,32
3.3,CV,VISITDY,Perm,33
3.3,CV,TAETORD,Perm,34
3.3,CV,EPOCH,Perm,35
3.3,CV,CVDTC,Exp,36
3.3,CV,CVDY,Perm,37
3.3,CV,CVTPT,Perm,38
3.3,CV,CVTPTNUM,Perm,39
3.3,CV,CVELTM,Perm,40
3.3,CV,CVTPTREF,Perm,41
3.3,CV,CVRFTDTC,Perm,42
3.3,MK,STUDYID,Req,1
3.3,MK,DOMAIN,Req,2
3.3,MK,USUBJID,Req,3
3.3,MK,MKSEQ,Req,4
3.3,MK,MKGRPID,Perm,5
3.3,MK,MKREFID,Perm,6
3.3,MK,MKSPID,Perm,7
3.3,MK,MKLNKID,Perm,8
3.3,MK,MKLNKGRP,Perm,9
3.3,MK,MKTESTCD,Req,10
3.3,MK,MKTEST,Req,11
3.3,MK,MKCAT,Perm,12
3.3,MK,MKSCAT,Perm,13
3.3,MK,MKPOS,Perm,14
3.3,MK,MKORRES,Exp,15
3.3,MK,MKORRESU,Perm,16
3.3,MK,MKSTRESC,Exp,17
3.3,MK,MKSTRESN,Perm,18
3.3,MK,MKSTRESU,Perm,19
3.3,MK,MKSTAT,Perm,20
3.3,MK,MKREASND,Perm,21
3.3,MK,MKLOC,Exp,22
3.3,MK,MKLAT,Perm,23
3.3,MK,MKDIR,Perm,24
3.3,MK,MKMETHOD,Perm,25
3.3,MK,MKLOBXFL,Exp,26
3.3,MK,MKBLFL,Perm,27
3.3,MK,MKDRVFL,Perm,28
3.3,MK,MKEVAL,Perm,29
3.3,MK,MKEVALID,Perm,30
3.3,MK,VISITNUM,Exp,31
3.3,MK,VISIT,Perm,32
3.3,MK,VISITDY,Perm,33
3.3,MK,TAETORD,Perm,34
3.3,MK,EPOCH,Perm,35
3.3,MK,MKDTC,Exp,36
3.3,MK,MKDY,Perm,37
3.3,MK,MKTPT,Perm,38
3.3,MK,MKTPTNUM,Perm,39
3.3,MK,MKELTM,Perm,40
3.3,MK,MKTPTREF,Perm,41
3.3,MK,MKRFTDTC,Perm,42
3.3,NV,STUDYID,Req,1
3.3,NV,DOMAIN,Req,2
3.3,NV,USUBJID,Req,3
3.3,NV,FOCID,Perm,4
3.3,NV,NVSEQ,Req,5
3.3,NV,NVGRPID,Perm,6
3.3,NV,NVREFID,Perm,7
3.3,NV,NVSPID,Perm,8
3.3,NV,NVLNKID,Perm,9
3.3,NV,NVLNKGRP,Perm,10
3.3,NV,NVTESTCD,Req,11
3.3,NV,NVTEST,Req,12
3.3,NV,NVCAT,Perm,13
3.3,NV,NVSCAT,Perm,14
3.3,NV,NVORRES,Exp,15
3.3,NV,NVORRESU,Perm,16
3.3,NV,NVSTRESC,Exp,17
3.3,NV,NVSTRESN,Perm,18
3.3,NV,NVSTRESU,Perm,19
3.3,NV,NVSTAT,Perm,20
3.3,NV,NVREASND,Perm,21
3.3,NV,NVLOC,Perm,22
3.3,NV,NVLAT,Perm,23
3.3,NV,NVDIR,Perm,24
3.3,NV,NVMETHOD,Perm,25
3.3,NV,NVLOBXFL,Perm,26
3.3,NV,NVBLFL,Perm,27
3.3,NV,NVDRVFL,Perm,28
3.3,NV,NVEVAL,Perm,29
3.3,NV,NVEVALID,Perm,30
3.3,NV,VISITNUM,Exp,31
3.3,NV,VISIT,Perm,32
3.3,NV,VISITDY,Perm,33
3.3,NV,TAETORD,Perm,34
3.3,NV,EPOCH,Perm,35
3.3,NV,NVDTC,Exp,36
3.3,NV,NVDY,Perm,37
3.3,NV,NVTPT,Perm,38
3.3,NV,NVTPTNUM,Perm,39
3.3,NV,NVELTM,Perm,40
3.3,NV,NVTPTREF,Perm,41
3.3,NV,NVRFTDTC,Perm,42
3.3,OE,STUDYID,Req,1
3.3,OE,DOMAIN,Req,2
3.3,OE,USUBJID,Req,3
3.3,OE,FOCID,Perm,4
3.3,OE,OESEQ,Req,5
3.3,OE,OEGRPID,Perm,6
3.3,OE,OELNKID,Perm,7
3.3,OE,OELNKGRP,Perm,8
3.3,OE,OETESTCD,Req,9
3.3,OE,OETEST,Req,10
3.3,OE,OETSTDTL,Perm,11
3.3,OE,OECAT,Perm,12
3.3,OE,OESCAT,Perm,13
3.3,OE,OEORRES,Exp,14
3.3,OE,OEORRESU,Exp,15
3.3,OE,OEORNRLO,Perm,16
3.3,OE,OEORNRHI,Perm,17
3.3,OE,OESTRESC,Exp,18
3.3,OE,OESTRESN,Exp,19
3.3,OE,OESTRESU,Exp,20
3.3,OE,OESTNRLO,Perm,21
3.3,OE,OESTNRHI,Perm,22
3.3,OE,OESTNRC,Perm,23
3.3,OE,OENRIND,Perm,24
3.3,OE,OERESCAT,Perm,25
3.3,OE,OESTAT,Perm,26
3.3,OE,OEREASND,Perm,27
3.3,OE,OEXFN,Perm,28
3.3,OE,OELOC,Exp,29
3.3,OE,OELAT,Exp,30
3.3,OE,OEDIR,Perm,31
3.3,OE,OEPORTOT,Perm,32
3.3,OE,OEMETHOD,Exp,33
3.3,OE,OELOBXFL,Exp,34
3.3,OE,OEBLFL,Perm,35
3.3,OE,OEDRVFL,Perm,36
3.3,OE,OEEVAL,Perm,37
3.3,OE,OEEVALID,Perm,38
3.3,OE,OEACPTFL,Perm,39
3.3,OE,OEREPNUM,Perm,40
3.3,OE,VISITNUM,Exp,41
3.3,OE,VISIT,Perm,42
3.3,OE,VISITDY,Perm,43
3.3,OE,TAETORD,Perm,44
3.3,OE,EPOCH,Perm,45
3.3,OE,OEDTC,Exp,46
3.3,OE,OEDY,Exp,47
3.3,OE,OETPT,Perm,48
3.3,OE,OETPTNUM,Perm,49
3.3,OE,OEELTM,Perm,50
3.3,OE,OETPTREF,Perm,51
3.3,OE,OERFTDTC,Perm,52
3.3,RP,STUDYID,Req,1
3.3,RP,DOMAIN,Req,2
3.3,RP,USUBJID,Req,3
3.3,RP,RPSEQ,Req,4
3.3,RP,RPGRPID,Perm,5
3.3,RP,RPREFID,Perm,6
3.3,RP,RPSPID,Perm,7
3.3,RP,RPLNKID,Perm,8
3.3,RP,RPLNKGRP,Perm,9
3.3,RP,RPTESTCD,Req,10
3.3,RP,RPTEST,Req,11
3.3,RP,RPCAT,Perm,12
3.3,RP,RPSCAT,Perm,13
3.3,RP,RPORRES,Exp,14
3.3,RP,RPORRESU,Perm,15
3.3,RP,RPSTRESC,Exp,16
3.3,RP,RPSTRESN,Perm,17
3.3,RP,RPSTRESU,Perm,18
3.3,RP,RPSTAT,Perm,19
3.3,RP,RPREASND,Perm,20
3.3,RP,RPLOBXFL,Perm,21
3.3,RP,RPBLFL,Perm,22
3.3,RP,RPDRVFL,Perm,23
3.3,RP,VISITNUM,Exp,24
3.3,RP,VISIT,Perm,25
3.3,RP,VISITDY,Perm,26
3.3,RP,TAETORD,Perm,27
3.3,RP,EPOCH,Perm,28
3.3,RP,RPDTC,Exp,29
3.3,RP,RPDY,Perm,30
3.3,RP,RPDUR,Perm,31
3.3,RP,RPTPT,Perm,32
3.3,RP,RPTPTNUM,Perm,33
3.3,RP,RPELTM,Perm,34
3.3,RP,RPTPTREF,Perm,35
3.3,RP,RPRFTDTC,Perm,36
3.3,RE,STUDYID,Req,1
3.3,RE,DOMAIN,Req,2
3.3,RE,USUBJID,Req,3
3.3,RE,SPDEVID,Perm,4
3.3,RE,RESEQ,Req,5
3.3,RE,REGRPID,Perm,6
3.3,RE,REREFID,Perm,7
3.3,RE,RESPID,Perm,8
3.3,RE,RELNKID,Perm,9
3.3,RE,RELNKGRP,Perm,10
3.3,RE,RETESTCD,Req,11
3.3,RE,RETEST,Req,12
3.3,RE,RECAT,Perm,13
3.3,RE,RESCAT,Perm,14
3.3,RE,REPOS,Perm,15
3.3,RE,REORRES,Exp,16
3.3,RE,REORRESU,Perm,17
3.3,RE,REORREF,Perm,18
3.3,RE,RESTRESC,Exp,19
3.3,RE,RESTRESN,Perm,20
3.3,RE,RESTRESU,Perm,21
3.3,RE,RESTREFC,Perm,22
3.3,RE,RESTREFN,Perm,23
3.3,RE,RESTAT,Perm,24
3.3,RE,REREASND,Perm,25
3.3,RE,RELOC,Perm,26
3.3,RE,RELAT,Perm,27
3.3,RE,REDIR,Perm,28
3.3,RE,REMETHOD,Perm,29
3.3,RE,RELOBXFL,Exp,30
3.3,RE,REBLFL,Perm,31
3.3,RE,REDRVFL,Perm,32
3.3,RE,REEVAL,Perm,33
3.3,RE,REEVALID,Perm,34
3.3,RE,REREPNUM,Perm,35
3.3,RE,VISITNUM,Exp,36
3.3,RE,VISIT,Perm,37
3.3,RE,VISITDY,Perm,38
3.3,RE,TAETORD,Perm,39
3.3,RE,EPOCH,Perm,40
3.3,RE,REDTC,Exp,41
3.3,RE,REDY,Perm,42
3.3,RE,RETPT,Perm,43
3.3,RE,RETPTNUM,Perm,44
3.3,RE,REELTM,Perm,45
3.3,RE,RETPTREF,Perm,46
3.3,RE,RERFTDTC,Perm,47
3.3,UR,STUDYID,Req,1
3.3,UR,DOMAIN,Req,2
3.3,UR,USUBJID,Req,3
3.3,UR,URSEQ,Req,4
3.3,UR,URGRPID,Perm,5
3.3,UR,URREFID,Perm,6
3.3,UR,URSPID,Perm,7
3.3,UR,URLNKID,Perm,8
3.3,UR,URLNKGRP,Perm,9
3.3,UR,URTESTCD,Req,10
3.3,UR,URTEST,Req,11
3.3,UR,URTSTDTL,Perm,12
3.3,UR,URCAT,Perm,13
3.3,UR,URSCAT,Perm,14
3.3,UR,URORRES,Exp,15
3.3,UR,URORRESU,Perm,16
3.3,UR,URSTRESC,Exp,17
3.3,UR,URSTRESN,Perm,18
3.3,UR,URSTRESU,Perm,19
3.3,UR,URRESCAT,Perm,20
3.3,UR,URSTAT,Perm,21
3.3,UR,URREASND,Perm,22
3.3,UR,URSPEC,Perm,23
3.3,UR,URSPCUFL,Perm,24
3.3,UR,URLOC,Perm,25
3.3,UR,URLAT,Perm,26
3.3,UR,URDIR,Perm,27
3.3,UR,URMETHOD,Perm,28
3.3,UR,URLOBXFL,Exp,29
3.3,UR,URBLFL,Perm,30
3.3,UR,URDRVFL,Perm,31
3.3,UR,UREVAL,Perm,32
3.3,UR,UREVALID,Perm,33
3.3,UR,VISITNUM,Exp,34
3.3,UR,VISIT,Perm,35
3.3,UR,VISITDY,Perm,36
3.3,UR,TAETORD,Perm,37
3.3,UR,EPOCH,Perm,38
3.3,UR,URDTC,Exp,39
3.3,UR,URDY,Perm,40
3.3,UR,URTPT,Perm,41
3.3,UR,URTPTNUM,Perm,42
3.3,UR,URELTM,Perm,43
3.3,UR,URTPTREF,Perm,44
3.3,UR,URRFTDTC,Perm,45
3.3,PC,STUDYID,Req,1
3.3,PC,DOMAIN,Req,2
3.3,PC,USUBJID,Req,3
3.3,PC,PCSEQ,Req,4
3.3,PC,PCGRPID,Perm,5
3.3,PC,PCREFID,Perm,6
3.3,PC,PCSPID,Perm,7
3.3,PC,PCTESTCD,Req,8
3.3,PC,PCTEST,Req,9
3.3,PC,PCCAT,Perm,10
3.3,PC,PCSCAT,Perm,11
3.3,PC,PCORRES,Exp,12
3.3,PC,PCORRESU,Exp,13
3.3,PC,PCSTRESC,Exp,14
3.3,PC,PCSTRESN,Exp,15
3.3,PC,PCSTRESU,Exp,16
3.3,PC,PCSTAT,Perm,17
3.3,PC,PCREASND,Perm,18
3.3,PC,PCNAM,Exp,19
3.3,PC,PCSPEC,Exp,20
3.3,PC,PCSPCCND,Perm,21
3.3,PC,PCMETHOD,Perm,22
3.3,PC,PCFAST,Perm,23
3.3,PC,PCDRVFL,Perm,24
3.3,PC,PCLLOQ,Exp,25
3.3,PC,PCULOQ,Perm,26
3.3,PC,VISITNUM,Exp,27
3.3,PC,VISIT,Perm,28
3.3,PC,VISITDY,Perm,29
3.3,PC,TAETORD,Perm,30
3.3,PC,EPOCH,Perm,31
3.3,PC,PCDTC,Exp,32
3.3,PC,PCENDTC,Perm,33
3.3,PC,PCDY,Perm,34
3.3,PC,PCENDY,Perm,35
3.3,PC,PCTPT,Perm,36
3.3,PC,PCTPTNUM,Perm,37
3.3,PC,PCELTM,Perm,38
3.3,PC,PCTPTREF,Perm,39
3.3,PC,PCRFTDTC,Perm,40
3.3,PC,PCEVLINT,Perm,41
3.3,PP,STUDYID,Req,1
3.3,PP,DOMAIN,Req,2
3.3,PP,USUBJID,Req,3
3.3,PP,PPSEQ,Req,4
3.3,PP,PPGRPID,Perm,5
3.3,PP,PPTESTCD,Req,6
3.3,PP,PPTEST,Req,7
3.3,PP,PPCAT,Exp,8
3.3,PP,PPSCAT,Perm,9
3.3,PP,PPORRES,Exp,10
3.3,PP,PPORRESU,Exp,11
3.3,PP,PPSTRESC,Exp,12
3.3,PP,PPSTRESN,Exp,13
3.3,PP,PPSTRESU,Exp,14
3.3,PP,PPSTAT,Perm,15
3.3,PP,PPREASND,Perm,16
3.3,PP,PPSPEC,Exp,17
3.3,PP,TAETORD,Perm,18
3.3,PP,EPOCH,Perm,19
3.3,PP,PPDTC,Perm,20
3.3,PP,PPDY,Perm,21
3.3,PP,PPRFTDTC,Exp,22
3.3,PP,PPSTINT,Perm,23
3.3,PP,PPENINT,Perm,24
3.3,PE,STUDYID,Req,1
3.3,PE,DOMAIN,Req,2
3.3,PE,USUBJID,Req,3
3.3,PE,PESEQ,Req,4
3.3,PE,PEGRPID,Perm,5
3.3,PE,PESPID,Perm,6
3.3,PE,PETESTCD,Req,7
3.3,PE,PETEST,Req,8
3.3,PE,PEMODIFY,Perm,9
3.3,PE,PECAT,Perm,10
3.3,PE,PESCAT,Perm,11
3.3,PE,PEBODSYS,Perm,12
3.3,PE,PEORRES,Exp,13
3.3,PE,PEORRESU,Perm,14
3.3,PE,PESTRESC,Exp,15
3.3,PE,PESTAT,Perm,16
3.3,PE,PEREASND,Perm,17
3.3,PE,PELOC,Perm,18
3.3,PE,PELAT,Perm,19
3.3,PE,PEMETHOD,Perm,20
3.3,PE,PELOBXFL,Perm,21
3.3,PE,PEBLFL,Perm,22
3.3,PE,PEEVAL,Perm,23
3.3,PE,VISITNUM,Exp,24
3.3,PE,VISIT,Perm,25
3.3,PE,VISITDY,Perm,26
3.3,PE,TAETORD,Perm,27
3.3,PE,EPOCH,Perm,28
3.3,PE,PEDTC,Exp,29
3.3,PE,PEDY,Perm,30
3.3,FT,STUDYID,Req,1
3.3,FT,DOMAIN,Req,2
3.3,FT,USUBJID,Req,3
3.3,FT,FTSEQ,Req,4
3.3,FT,FTGRPID,Perm,5
3.3,FT,FTREFID,Perm,6
3.3,FT,FTSPID,Perm,7
3.3,FT,FTTESTCD,Req,8
3.3,FT,FTTEST,Req,9
3.3,FT,FTCAT,Req,10
3.3,FT,FTSCAT,Perm,11
3.3,FT,FTPOS,Perm,12
3.3,FT,FTORRES,Exp,13
3.3,FT,FTORRESU,Perm,14
3.3,FT,FTSTRESC,Exp,15
3.3,FT,FTSTRESN,Perm,16
3.3,FT,FTSTRESU,Perm,17
3.3,FT,FTSTAT,Perm,18
3.3,FT,FTREASND,Perm,19
3.3,FT,FTXFN,Perm,20
3.3,FT,FTNAM,Perm,21
3.3,FT,FTMETHOD,Perm,22
3.3,FT,FTLOBXFL,Exp,23
3.3,FT,FTBLFL,Perm,24
3.3,FT,FTDRVFL,Perm,25
3.3,FT,FTEVAL,Perm,26
3.3,FT,FTREPNUM,Perm,27
3.3,FT,VISITNUM,Exp,28
3.3,FT,VISIT,Perm,29
3.3,FT,VISITDY,Perm,30
3.3,FT,TAETORD,Perm,31
3.3,FT,EPOCH,Perm,32
3.3,FT,FTDTC,Exp,33
3.3,FT,FTDY,Perm,34
3.3,FT,FTTPT,Perm,35
3.3,FT,FTTPTNUM,Perm,36
3.3,FT,FTELTM,Perm,37
3.3,FT,FTTPTREF,Perm,38
3.3,FT,FTRFTDTC,Perm,39
3.3,QS,STUDYID,Req,1
3.3,QS,DOMAIN,Req,2
3.3,QS,USUBJID,Req,3
3.3,QS,QSSEQ,Req,4
3.3,QS,QSGRPID,Perm,5
3.3,QS,QSSPID,Perm,6
3.3,QS,QSTESTCD,Req,7
3.3,QS,QSTEST,Req,8
3.3,QS,QSCAT,Req,9
3.3,QS,QSSCAT,Perm,10
3.3,QS,QSORRES,Exp,11
3.3,QS,QSORRESU,Perm,12
3.3,QS,QSSTRESC,Exp,13
3.3,QS,QSSTRESN,Perm,14
3.3,QS,QSSTRESU,Perm,15
3.3,QS,QSSTAT,Perm,16
3.3,QS,QSREASND,Perm,17
3.3,QS,QSLOBXFL,Perm,18
3.3,QS,QSBLFL,Perm,19
3.3,QS,QSDRVFL,Perm,20
3.3,QS,QSEVAL,Perm,21
3.3,QS,VISITNUM,Exp,22
3.3,QS,VISIT,Perm,23
3.3,QS,VISITDY,Perm,24
3.3,QS,TAETORD,Perm,25
3.3,QS,EPOCH,Perm,26
3.3,QS,QSDTC,Exp,27
3.3,QS,QSDY,Perm,28
3.3,QS,QSTPT,Perm,29
3.3,QS,QSTPTNUM,Perm,30
3.3,QS,QSELTM,Perm,31
3.3,QS,QSTPTREF,Perm,32
3.3,QS,QSRFTDTC,Perm,33
3.3,QS,QSEVLINT,Perm,34
3.3,RS,STUDYID,Req,1
3.3,RS,DOMAIN,Req,2
3.3,RS,USUBJID,Req,3
3.3,RS,RSSEQ,Req,4
3.3,RS,RSGRPID,Perm,5
3.3,RS,RSREFID,Perm,6
3.3,RS,RSSPID,Perm,7
3.3,RS,RSLNKID,Perm,8
3.3,RS,RSLNKGRP,Perm,9
3.3,RS,RSTESTCD,Req,10
3.3,RS,RSTEST,Req,11
3.3,RS,RSCAT,Exp,12
3.3,RS,RSSCAT,Perm,13
3.3,RS,RSORRES,Exp,14
3.3,RS,RSORRESU,Perm,15
3.3,RS,RSSTRESC,Exp,16
3.3,RS,RSSTRESN,Perm,17
3.3,RS,RSSTRESU,Perm,18
3.3,RS,RSSTAT,Perm,19
3.3,RS,RSREASND,Perm,20
3.3,RS,RSNAM,Perm,21
3.3,RS,RSLOBXFL,Perm,22
3.3,RS,RSBLFL,Perm,23
3.3,RS,RSDRVFL,Perm,24
3.3,RS,RSEVAL,Perm,25
3.3,RS,RSEVALID,Perm,26
3.3,RS,RSACPTFL,Perm,27
3.3,RS,VISITNUM,Exp,28
3.3,RS,VISIT,Perm,29
3.3,RS,VISITDY,Perm,30
3.3,RS,TAETORD,Perm,31
3.3,RS,EPOCH,Perm,32
3.3,RS,RSDTC,Exp,33
3.3,RS,RSDY,Perm,34
3.3,RS,RSTPT,Perm,35
3.3,RS,RSTPTNUM,Perm,36
3.3,RS,RSELTM,Perm,37
3.3,RS,RSTPTREF,Perm,38
3.3,RS,RSRFTDTC,Perm,39
3.3,RS,RSEVLINT,Perm,40
3.3,RS,RSEVINTX,Perm,41
3.3,RS,RSSTRTPT,Perm,42
3.3,RS,RSSTTPT,Perm,43
3.3,RS,RSENRTPT,Perm,44
3.3,RS,RSENTPT,Perm,45
3.3,SC,STUDYID,Req,1
3.3,SC,DOMAIN,Req,2
3.3,SC,USUBJID,Req,3
3.3,SC,SCSEQ,Req,4
3.3,SC,SCGRPID,Perm,5
3.3,SC,SCSPID,Perm,6
3.3,SC,SCTESTCD,Req,7
3.3,SC,SCTEST,Req,8
3.3,SC,SCCAT,Perm,9
3.3,SC,SCSCAT,Perm,10
3.3,SC,SCORRES,Exp,11
3.3,SC,SCORRESU,Perm,12
3.3,SC,SCSTRESC,Exp,13
3.3,SC,SCSTRESN,Perm,14
3.3,SC,SCSTRESU,Perm,15
3.3,SC,SCSTAT,Perm,16
3.3,SC,SCREASND,Perm,17
3.3,SC,TAETORD,Perm,18
3.3,SC,EPOCH,Perm,19
3.3,SC,SCDTC,Perm,20
3.3,SC,SCDY,Perm,21
3.3,SS,STUDYID,Req,1
3.3,SS,DOMAIN,Req,2
3.3,SS,USUBJID,Req,3
3.3,SS,SSSEQ,Req,4
3.3,SS,SSGRPID,Perm,5
3.3,SS,SSSPID,Perm,6
3.3,SS,SSTESTCD,Req,7
3.3,SS,SSTEST,Req,8
3.3,SS,SSCAT,Perm,9
3.3,SS,SSSCAT,Perm,10
3.3,SS,SSORRES,Exp,11
3.3,SS,SSSTRESC,Exp,12
3.3,SS,SSSTAT,Perm,13
3.3,SS,SSREASND,Perm,14
3.3,SS,SSEVAL,Perm,15
3.3,SS,VISITNUM,Exp,16
3.3,SS,VISIT,Perm,17
3.3,SS,VISITDY,Perm,18
3.3,SS,TAETORD,Perm,19
3.3,SS,EPOCH,Perm,20
3.3,SS,SSDTC,Exp,21
3.3,SS,SSDY,Perm,22
3.3,TU,STUDYID,Req,1
3.3,TU,DOMAIN,Req,2
3.3,TU,USUBJID,Req,3
3.3,TU,TUSEQ,Req,4
3.3,TU,TUGRPID,Perm,5
3.3,TU,TUREFID,Perm,6
3.3,TU,TUSPID,Perm,7
3.3,TU,TULNKID,Exp,8
3.3,TU,TULNKGRP,Perm,9
3.3,TU,TUTESTCD,Req,10
3.3,TU,TUTEST,Req,11
3.3,TU,TUORRES,Exp,12
3.3,TU,TUSTRESC,Exp,13
3.3,TU,TUNAM,Perm,14
3.3,TU,TULOC,Exp,15
3.3,TU,TULAT,Perm,16
3.3,TU,TUDIR,Perm,17
3.3,TU,TUPORTOT,Perm,18
3.3,TU,TUMETHOD,Exp,19
3.3,TU,TULOBXFL,Exp,20
3.3,TU,TUBLFL,Perm,21
3.3,TU,TUEVAL,Exp,22
3.3,TU,TUEVALID,Perm,23
3.3,TU,TUACPTFL,Perm,24
3.3,TU,VISITNUM,Exp,25
3.3,TU,VISIT,Perm,26
3.3,TU,VISITDY,Perm,27
3.3,TU,TAETORD,Perm,28
3.3,TU,EPOCH,Perm,29
3.3,TU,TUDTC,Exp,30
3.3,TU,TUDY,Perm,31
3.3,TR,STUDYID,Req,1
3.3,TR,DOMAIN,Req,2
3.3,TR,USUBJID,Req,3
3.3,TR,TRSEQ,Req,4
3.3,TR,TRGRPID,Perm,5
3.3,TR,TRREFID,Perm,6
3.3,TR,TRSPID,Perm,7
3.3,TR,TRLNKID,Exp,8
3.3,TR,TRLNKGRP,Perm,9
3.3,TR,TRTESTCD,Req,10
3.3,TR,TRTEST,Req,11
3.3,TR,TRORRES,Exp,12
3.3,TR,TRORRESU,Exp,13
3.3,TR,TRSTRESC,Exp,14
3.3,TR,TRSTRESN,Exp,15
3.3,TR,TRSTRESU,Exp,16
3.3,TR,TRSTAT,Perm,17
3.3,TR,TRREASND,Perm,18
3.3,TR,TRNAM,Perm,19
3.3,TR,TRMETHOD,Exp,20
3.3,TR,TRLOBXFL,Exp,21
3.3,TR,TRBLFL,Perm,22
3.3,TR,TREVAL,Exp,23
3.3,TR,TREVALID,Perm,24
3.3,TR,TRACPTFL,Perm,25
3.3,TR,VISITNUM,Exp,26
3.3,TR,VISIT,Perm,27
3.3,TR,VISITDY,Perm,28
3.3,TR,TAETORD,Perm,29
3.3,TR,EPOCH,Perm,30
3.3,TR,TRDTC,Exp,31
3.3,TR,TRDY,Perm,32
3.3,VS,STUDYID,Req,1
3.3,VS,DOMAIN,Req,2
3.3,VS,USUBJID,Req,3
3.3,VS,VSSEQ,Req,4
3.3,VS,VSGRPID,Perm,5
3.3,VS,VSSPID,Perm,6
3.3,VS,VSTESTCD,Req,7
3.3,VS,VSTEST,Req,8
3.3,VS,VSCAT,Perm,9
3.3,VS,VSSCAT,Perm,10
3.3,VS,VSPOS,Perm,11
3.3,VS,VSORRES,Exp,12
3.3,VS,VSORRESU,Exp,13
3.3,VS,VSSTRESC,Exp,14
3.3,VS,VSSTRESN,Exp,15
3.3,VS,VSSTRESU,Exp,16
3.3,VS,VSSTAT,Perm,17
3.3,VS,VSREASND,Perm,18
3.3,VS,VSLOC,Perm,19
3.3,VS,VSLAT,Perm,20
3.3,VS,VSLOBXFL,Exp,21
3.3,VS,VSBLFL,Perm,22
3.3,VS,VSDRVFL,Perm,23
3.3,VS,VISITNUM,Exp,24
3.3,VS,VISIT,Perm,25
3.3,VS,VISITDY,Perm,26
3.3,VS,TAETORD,Perm,27
3.3,VS,EPOCH,Perm,28
3.3,VS,VSDTC,Exp,29
3.3,VS,VSDY,Perm,30
3.3,VS,VSTPT,Perm,31
3.3,VS,VSTPTNUM,Perm,32
3.3,VS,VSELTM,Perm,33
3.3,VS,VSTPTREF,Perm,34
3.3,VS,VSRFTDTC,Perm,35
3.3,FA,STUDYID,Req,1
3.3,FA,DOMAIN,Req,2
3.3,FA,USUBJID,Req,3
3.3,FA,FASEQ,Req,4
3.3,FA,FAGRPID,Perm,5
3.3,FA,FASPID,Perm,6
3.3,FA,FATESTCD,Req,7
3.3,FA,FATEST,Req,8
3.3,FA,FAOBJ,Req,9
3.3,FA,FACAT,Perm,10
3.3,FA,FASCAT,Perm,11
3.3,FA,FAORRES,Exp,12
3.3,FA,FAORRESU,Perm,13
3.3,FA,FASTRESC,Exp,14
3.3,FA,FASTRESN,Perm,15
3.3,FA,FASTRESU,Perm,16
3.3,FA,FASTAT,Perm,17
3.3,FA,FAREASND,Perm,18
3.3,FA,FALOC,Perm,19
3.3,FA,FALAT,Perm,20
3.3,FA,FALOBXFL,Perm,21
3.3,FA,FABLFL,Perm,22
3.3,FA,FAEVAL,Perm,23
3.3,FA,VISITNUM,Exp,24
3.3,FA,VISIT,Perm,25
3.3,FA,VISITDY,Perm,26
3.3,FA,TAETORD,Perm,27
3.3,FA,EPOCH,Perm,28
3.3,FA,FADTC,Perm,29
3.3,FA,FADY,Perm,30
3.3,SR,STUDYID,Req,1
3.3,SR,DOMAIN,Req,2
3.3,SR,USUBJID,Req,3
3.3,SR,SRSEQ,Req,4
3.3,SR,SRGRPID,Perm,5
3.3,SR,SRREFID,Perm,6
3.3,SR,SRSPID,Perm,7
3.3,SR,SRTESTCD,Req,8
3.3,SR,SRTEST,Req,9
3.3,SR,SROBJ,Req,10
3.3,SR,SRCAT,Perm,11
3.3,SR,SRSCAT,Perm,12
3.3,SR,SRORRES,Exp,13
3.3,SR,SRORRESU,Exp,14
3.3,SR,SRSTRESC,Exp,15
3.3,SR,SRSTRESN,Exp,16
3.3,SR,SRSTRESU,Exp,17
3.3,SR,SRSTAT,Perm,18
3.3,SR,SRREASND,Perm,19
3.3,SR,SRNAM,Perm,20
3.3,SR,SRSPEC,Perm,21
3.3,SR,SRLOC,Perm,22
3.3,SR,SRLAT,Perm,23
3.3,SR,SRMETHOD,Perm,24
3.3,SR,SRLOBXFL,Perm,25
3.3,SR,SRBLFL,Perm,26
3.3,SR,SREVAL,Perm,27
3.3,SR,VISITNUM,Exp,28
3.3,SR,VISIT,Perm,29
3.3,SR,VISITDY,Perm,30
3.3,SR,TAETORD,Perm,31
3.3,SR,EPOCH,Perm,32
3.3,SR,SRDTC,Exp,33
3.3,SR,SRDY,Perm,34
3.3,SR,SRTPT,Perm,35
3.3,SR,SRTPTNUM,Perm,36
3.3,SR,SRELTM,Perm,37
3.3,SR,SRTPTREF,Perm,38
3.3,SR,SRRFTDTC,Perm,39
3.3,TA,STUDYID,Req,1
3.3,TA,DOMAIN,Req,2
3.3,TA,ARMCD,Req,3
3.3,TA,ARM,Req,4
3.3,TA,TAETORD,Req,5
3.3,TA,ETCD,Req,6
3.3,TA,ELEMENT,Perm,7
3.3,TA,TABRANCH,Exp,8
3.3,TA,TATRANS,Exp,9
3.3,TA,EPOCH,Req,10
3.3,TE,STUDYID,Req,1
3.3,TE,DOMAIN,Req,2
3.3,TE,ETCD,Req,3
3.3,TE,ELEMENT,Req,4
3.3,TE,TESTRL,Req,5
3.3,TE,TEENRL,Perm,6
3.3,TE,TEDUR,Perm,7
3.3,TV,STUDYID,Req,1
3.3,TV,DOMAIN,Req,2
3.3,TV,VISITNUM,Req,3
3.3,TV,VISIT,Perm,4
3.3,TV,VISITDY,Perm,5
3.3,TV,ARMCD,Exp,6
3.3,TV,ARM,Perm,7
3.3,TV,TVSTRL,Req,8
3.3,TV,TVENRL,Perm,9
3.3,TD,STUDYID,Req,1
3.3,TD,DOMAIN,Req,2
3.3,TD,TDORDER,Req,3
3.3,TD,TDANCVAR,Req,4
3.3,TD,TDSTOFF,Req,5
3.3,TD,TDTGTPAI,Req,6
3.3,TD,TDMINPAI,Req,7
3.3,TD,TDMAXPAI,Req,8
3.3,TD,TDNUMRPT,Req,9
3.3,TM,STUDYID,Req,1
3.3,TM,DOMAIN,Req,2
3.3,TM,MIDSTYPE,Req,3
3.3,TM,TMDEF,Req,4
3.3,TM,TMRPT,Req,5
3.3,TI,STUDYID,Req,1
3.3,TI,DOMAIN,Req,2
3.3,TI,IETESTCD,Req,3
3.3,TI,IETEST,Req,4
3.3,TI,IECAT,Req,5
3.3,TI,IESCAT,Perm,6
3.3,TI,TIRL,Perm,7
3.3,TI,TIVERS,Perm,8
3.3,TS,STUDYID,Req,1
3.3,TS,DOMAIN,Req,2
3.3,TS,TSSEQ,Req,3
3.3,TS,TSGRPID,Perm,4
3.3,TS,TSPARMCD,Req,5
3.3,TS,TSPARM,Req,6
3.3,TS,TSVAL,Exp,7
3.3,TS,TSVALNF,Perm,8
3.3,TS,TSVALCD,Exp,9
3.3,TS,TSVCDREF,Exp,10
3.3,TS,TSVCDVER,Exp,11
3.3,RELREC,STUDYID,Req,1
3.3,RELREC,RDOMAIN,Req,2
3.3,RELREC,USUBJID,Exp,3
3.3,RELREC,IDVAR,Req,4
3.3,RELREC,IDVARVAL,Exp,5
3.3,RELREC,RELTYPE,Exp,6
3.3,RELREC,RELID,Req,7
3.3,SUPPQUAL,STUDYID,Req,1
3.3,SUPPQUAL,RDOMAIN,Req,2
3.3,SUPPQUAL,USUBJID,Req,3
3.3,SUPPQUAL,IDVAR,Exp,4
3.3,SUPPQUAL,IDVARVAL,Exp,5
3.3,SUPPQUAL,QNAM,Req,6
3.3,SUPPQUAL,QLABEL,Req,7
3.3,SUPPQUAL,QVAL,Req,8
3.3,SUPPQUAL,QORIG,Req,9
3.3,SUPPQUAL,QEVAL,Exp,10
3.3,RELSUB,STUDYID,Req,1
3.3,RELSUB,USUBJID,Exp,2
3.3,RELSUB,POOLID,Perm,3
3.3,RELSUB,RSUBJID,Req,4
3.3,RELSUB,SREL,Req,5
3.3,OI,STUDYID,Req,1
3.3,OI,DOMAIN,Req,2
3.3,OI,NHOID,Req,3
3.3,OI,OISEQ,Req,4
3.3,OI,OIPARMCD,Req,5
3.3,OI,OIPARM,Req,6
3.3,OI,OIVAL,Req,7
3.4,AG,STUDYID,Req,1
3.4,AG,DOMAIN,Req,2
3.4,AG,USUBJID,Req,3
3.4,AG,AGSEQ,Req,4
3.4,AG,AGGRPID,Perm,5
3.4,AG,AGSPID,Perm,6
3.4,AG,AGLNKID,Perm,7
3.4,AG,AGLNKGRP,Perm,8
3.4,AG,AGTRT,Req,9
3.4,AG,AGMODIFY,Perm,10
3.4,AG,AGDECOD,Perm,11
3.4,AG,AGCAT,Perm,12
3.4,AG,AGSCAT,Perm,13
3.4,AG,AGPRESP,Perm,14
3.4,AG,AGOCCUR,Perm,15
3.4,AG,AGSTAT,Perm,16
3.4,AG,AGREASND,Perm,17
3.4,AG,AGCLAS,Perm,18
3.4,AG,AGCLASCD,Perm,19
3.4,AG,AGDOSE,Perm,20
3.4,AG,AGDOSTXT,Perm,21
3.4,AG,AGDOSU,Perm,22
3.4,AG,AGDOSFRM,Perm,23
3.4,AG,AGDOSFRQ,Perm,24
3.4,AG,AGROUTE,Perm,25
3.4,AG,VISITNUM,Exp,26
3.4,AG,VISIT,Perm,27
3.4,AG,VISITDY,Perm,28
3.4,AG,TAETORD,Perm,29
3.4,AG,EPOCH,Perm,30
3.4,AG,AGSTDTC,Perm,31
3.4,AG,AGENDTC,Perm,32
3.4,AG,AGSTDY,Perm,33
3.4,AG,AGENDY,Perm,34
3.4,AG,AGDUR,Perm,35
3.4,AG,AGSTRF,Perm,36
3.4,AG,AGENRF,Perm,37
3.4,AG,AGSTRTPT,Perm,38
3.4,AG,AGSTTPT,Perm,39
3.4,AG,AGENRTPT,Perm,40
3.4,AG,AGENTPT,Perm,41
3.4,CM,STUDYID,Req,1
3.4,CM,DOMAIN,Req,2
3.4,CM,USUBJID,Req,3
3.4,CM,CMSEQ,Req,4
3.4,CM,CMGRPID,Perm,5
3.4,CM,CMSPID,Perm,6
3.4,CM,CMTRT,Req,7
3.4,CM,CMMODIFY,Perm,8
3.4,CM,CMDECOD,Perm,9
3.4,CM,CMCAT,Perm,10
3.4,CM,CMSCAT,Perm,11
3.4,CM,CMPRESP,Perm,12
3.4,CM,CMOCCUR,Perm,13
3.4,CM,CMSTAT,Perm,14
3.4,CM,CMREASND,Perm,15
3.4,CM,CMINDC,Perm,16
3.4,CM,CMCLAS,Perm,17
3.4,CM,CMCLASCD,Perm,18
3.4,CM,CMDOSE,Perm,19
3.4,CM,CMDOSTXT,Perm,20
3.4,CM,CMDOSU,Perm,21
3.4,CM,CMDOSFRM,Perm,22
3.4,CM,CMDOSFRQ,Perm,23
3.4,CM,CMDOSTOT,Perm,24
3.4,CM,CMDOSRGM,Perm,25
3.4,CM,CMROUTE,Perm,26
3.4,CM,CMADJ,Perm,27
3.4,CM,CMRSDISC,Perm,28
3.4,CM,TAETORD,Perm,29
3.4,CM,EPOCH,Perm,30
3.4,CM,CMSTDTC,Perm,31
3.4,CM,CMENDTC,Perm,32
3.4,CM,CMSTDY,Perm,33
3.4,CM,CMENDY,Perm,34
3.4,CM,CMDUR,Perm,35
3.4,CM,CMSTRF,Perm,36
3.4,CM,CMENRF,Perm,37
3.4,CM,CMSTRTPT,Perm,38
3.4,CM,CMSTTPT,Perm,39
3.4,CM,CMENRTPT,Perm,40
3.4,CM,CMENTPT,Perm,41
3.4,EC,STUDYID,Req,1
3.4,EC,DOMAIN,Req,2
3.4,EC,USUBJID,Req,3
3.4,EC,ECSEQ,Req,4
3.4,EC,ECGRPID,Perm,5
3.4,EC,ECREFID,Perm,6
3.4,EC,ECSPID,Perm,7
3.4,EC,ECLNKID,Perm,8
3.4,EC,ECLNKGRP,Perm,9
3.4,EC,ECTRT,Req,10
3.4,EC,ECMOOD,Perm,11
3.4,EC,ECCAT,Perm,12
3.4,EC,ECSCAT,Perm,13
3.4,EC,ECPRESP,Perm,14
3.4,EC,ECOCCUR,Perm,15
3.4,EC,ECREASOC,Perm,16
3.4,EC,ECDOSE,Exp,17
3.4,EC,ECDOSTXT,Perm,18
3.4,EC,ECDOSU,Exp,19
3.4,EC,ECDOSFRM,Exp,20
3.4,EC,ECDOSFRQ,Perm,21
3.4,EC,ECDOSTOT,Perm,22
3.4,EC,ECDOSRGM,Perm,23
3.4,EC,ECROUTE,Perm,24
3.4,EC,ECLOT,Perm,25
3.4,EC,ECLOC,Perm,26
3.4,EC,ECLAT,Perm,27
3.4,EC,ECDIR,Perm,28
3.4,EC,ECPORTOT,Perm,29
3.4,EC,ECFAST,Perm,30
3.4,EC,ECPSTRG,Perm,31
3.4,EC,ECPSTRGU,Perm,32
3.4,EC,ECADJ,Perm,33
3.4,EC,TAETORD,Perm,34
3.4,EC,EPOCH,Perm,35
3.4,EC,ECSTDTC,Exp,36
3.4,EC,ECENDTC,Exp,37
3.4,EC,ECSTDY,Perm,38
3.4,EC,ECENDY,Perm,39
3.4,EC,ECDUR,Perm,40
3.4,EC,ECTPT,Perm,41
3.4,EC,ECTPTNUM,Perm,42
3.4,EC,ECELTM,Perm,43
3.4,EC,ECTPTREF,Perm,44
3.4,EC,ECRFTDTC,Perm,45
3.4,EX,STUDYID,Req,1
3.4,EX,DOMAIN,Req,2
3.4,EX,USUBJID,Req,3
3.4,EX,EXSEQ,Req,4
3.4,EX,EXGRPID,Perm,5
3.4,EX,EXREFID,Perm,6
3.4,EX,EXSPID,Perm,7
3.4,EX,EXLNKID,Perm,8
3.4,EX,EXLNKGRP,Perm,9
3.4,EX,EXTRT,Req,10
3.4,EX,EXCAT,Perm,11
3.4,EX,EXSCAT,Perm,12
3.4,EX,EXDOSE,Exp,13
3.4,EX,EXDOSTXT,Perm,14
3.4,EX,EXDOSU,Exp,15
3.4,EX,EXDOSFRM,Exp,16
3.4,EX,EXDOSFRQ,Perm,17
3.4,EX,EXDOSRGM,Perm,18
3.4,EX,EXROUTE,Perm,19
3.4,EX,EXLOT,Perm,20
3.4,EX,EXLOC,Perm,21
3.4,EX,EXLAT,Perm,22
3.4,EX,EXDIR,Perm,23
3.4,EX,EXFAST,Perm,24
3.4,EX,EXADJ,Perm,25
3.4,EX,TAETORD,Perm,26
3.4,EX,EPOCH,Perm,27
3.4,EX,EXSTDTC,Exp,28
3.4,EX,EXENDTC,Exp,29
3.4,EX,EXSTDY,Perm,30
3.4,EX,EXENDY,Perm,31
3.4,EX,EXDUR,Perm,32
3.4,EX,EXTPT,Perm,33
3.4,EX,EXTPTNUM,Perm,34
3.4,EX,EXELTM,Perm,35
3.4,EX,EXTPTREF,Perm,36
3.4,EX,EXRFTDTC,Perm,37
3.4,ML,STUDYID,Req,1
3.4,ML,DOMAIN,Req,2
3.4,ML,USUBJID,Req,3
3.4,ML,MLSEQ,Req,4
3.4,ML,MLGRPID,Perm,5
3.4,ML,MLSPID,Perm,6
3.4,ML,MLTRT,Req,7
3.4,ML,MLCAT,Perm,8
3.4,ML,MLSCAT,Perm,9
3.4,ML,MLPRESP,Perm,10
3.4,ML,MLOCCUR,Perm,11
3.4,ML,MLSTAT,Perm,12
3.4,ML,MLREASND,Perm,13
3.4,ML,MLDOSE,Perm,14
3.4,ML,MLDOSTXT,Perm,15
3.4,ML,MLDOSU,Perm,16
3.4,ML,MLDOSFRM,Perm,17
3.4,ML,VISITNUM,Perm,18
3.4,ML,VISIT,Perm,19
3.4,ML,VISITDY,Perm,20
3.4,ML,TAETORD,Perm,21
3.4,ML,EPOCH,Perm,22
3.4,ML,MLDTC,Perm,23
3.4,ML,MLSTDTC,Perm,24
3.4,ML,MLENDTC,Perm,25
3.4,ML,MLDY,Perm,26
3.4,ML,MLSTDY,Perm,27
3.4,ML,MLENDY,Perm,28
3.4,ML,MLDUR,Perm,29
3.4,ML,MLTPT,Perm,30
3.4,ML,MLTPTNUM,Perm,31
3.4,ML,MLELTM,Perm,32
3.4,ML,MLTPTREF,Perm,33
3.4,ML,MLRFTDTC,Perm,34
3.4,ML,MIDS,Perm,35
3.4,ML,RELMIDS,Perm,36
3.4,ML,MIDSDTC,Perm,37
3.4,PR,STUDYID,Req,1
3.4,PR,DOMAIN,Req,2
3.4,PR,USUBJID,Req,3
3.4,PR,PRSEQ,Req,4
3.4,PR,PRGRPID,Perm,5
3.4,PR,PRSPID,Perm,6
3.4,PR,PRLNKID,Perm,7
3.4,PR,PRLNKGRP,Perm,8
3.4,PR,PRTRT,Req,9
3.4,PR,PRDECOD,Perm,10
3.4,PR,PRCAT,Perm,11
3.4,PR,PRSCAT,Perm,12
3.4,PR,PRPRESP,Perm,13
3.4,PR,PROCCUR,Perm,14
3.4,PR,PRINDC,Perm,15
3.4,PR,PRDOSE,Perm,16
3.4,PR,PRDOSTXT,Perm,17
3.4,PR,PRDOSU,Perm,18
3.4,PR,PRDOSFRM,Perm,19
3.4,PR,PRDOSFRQ,Perm,20
3.4,PR,PRDOSRGM,Perm,21
3.4,PR,PRROUTE,Perm,22
3.4,PR,PRLOC,Perm,23
3.4,PR,PRLAT,Perm,24
3.4,PR,PRDIR,Perm,25
3.4,PR,PRPORTOT,Perm,26
3.4,PR,VISITNUM,Perm,27
3.4,PR,VISIT,Perm,28
3.4,PR,VISITDY,Perm,29
3.4,PR,TAETORD,Perm,30
3.4,PR,EPOCH,Perm,31
3.4,PR,PRSTDTC,Exp,32
3.4,PR,PRENDTC,Perm,33
3.4,PR,PRSTDY,Perm,34
3.4,PR,PRENDY,Perm,35
3.4,PR,PRDUR,Perm,36
3.4,PR,PRTPT,Perm,37
3.4,PR,PRTPTNUM,Perm,38
3.4,PR,PRELTM,Perm,39
3.4,PR,PRTPTREF,Perm,40
3.4,PR,PRRFTDTC,Perm,41
3.4,PR,PRSTRTPT,Perm,42
3.4,PR,PRSTTPT,Perm,43
3.4,PR,PRENRTPT,Perm,44
3.4,PR,PRENTPT,Perm,45
3.4,SU,STUDYID,Req,1
3.4,SU,DOMAIN,Req,2
3.4,SU,USUBJID,Req,3
3.4,SU,SUSEQ,Req,4
3.4,SU,SUGRPID,Perm,5
3.4,SU,SUSPID,Perm,6
3.4,SU,SUTRT,Req,7
3.4,SU,SUMODIFY,Perm,8
3.4,SU,SUDECOD,Perm,9
3.4,SU,SUCAT,Perm,10
3.4,SU,SUSCAT,Perm,11
3.4,SU,SUPRESP,Perm,12
3.4,SU,SUOCCUR,Perm,13
3.4,SU,SUSTAT,Perm,14
3.4,SU,SUREASND,Perm,15
3.4,SU,SUCLAS,Perm,16
3.4,SU,SUCLASCD,Perm,17
3.4,SU,SUDOSE,Perm,18
3.4,SU,SUDOSTXT,Perm,19
3.4,SU,SUDOSU,Perm,20
3.4,SU,SUDOSFRM,Perm,21
3.4,SU,SUDOSFRQ,Perm,22
3.4,SU,SUDOSTOT,Perm,23
3.4,SU,SUROUTE,Perm,24
3.4,SU,TAETORD,Perm,25
3.4,SU,EPOCH,Perm,26
3.4,SU,SUSTDTC,Perm,27
3.4,SU,SUENDTC,Perm,28
3.4,SU,SUSTDY,Perm,29
3.4,SU,SUENDY,Perm,30
3.4,SU,SUDUR,Perm,31
3.4,SU,SUSTRF,Perm,32
3.4,SU,SUENRF,Perm,33
3.4,SU,SUSTRTPT,Perm,34
3.4,SU,SUSTTPT,Perm,35
3.4,SU,SUENRTPT,Perm,36
3.4,SU,SUENTPT,Perm,37
3.4,AE,STUDYID,Req,1
3.4,AE,DOMAIN,Req,2
3.4,AE,USUBJID,Req,3
3.4,AE,SPDEVID,Perm,4
3.4,AE,AESEQ,Req,5
3.4,AE,AEGRPID,Perm,6
3.4,AE,AEREFID,Perm,7
3.4,AE,AESPID,Perm,8
3.4,AE,AETERM,Req,9
3.4,AE,AEMODIFY,Perm,10
3.4,AE,AELLT,Exp,11
3.4,AE,AELLTCD,Exp,12
3.4,AE,AEDECOD,Req,13
3.4,AE,AEPTCD,Exp,14
3.4,AE,AEHLT,Exp,15
3.4,AE,AEHLTCD,Exp,16
3.4,AE,AEHLGT,Exp,17
3.4,AE,AEHLGTCD,Exp,18
3.4,AE,AECAT,Perm,19
3.4,AE,AESCAT,Perm,20
3.4,AE,AEPRESP,Perm,21
3.4,AE,AEBODSYS,Exp,22
3.4,AE,AEBDSYCD,Exp,23
3.4,AE,AESOC,Exp,24
3.4,AE,AESOCCD,Exp,25
3.4,AE,AELOC,Perm,26
3.4,AE,AESEV,Perm,27
3.4,AE,AESER,Exp,28
3.4,AE,AEACN,Exp,29
3.4,AE,AEACNOTH,Perm,30
3.4,AE,AEACNDEV,Perm,31
3.4,AE,AEREL,Exp,32
3.4,AE,AERLDEV,Perm,33
3.4,AE,AERELNST,Perm,34
3.4,AE,AEPATT,Perm,35
3.4,AE,AEOUT,Perm,36
3.4,AE,AESCAN,Perm,37
3.4,AE,AESCONG,Perm,38
3.4,AE,AESDISAB,Perm,39
3.4,AE,AESDTH,Perm,40
3.4,AE,AESHOSP,Perm,41
3.4,AE,AESLIFE,Perm,42
3.4,AE,AESOD,Perm,43
3.4,AE,AESMIE,Perm,44
3.4,AE,AESINTV,Perm,45
3.4,AE,AEUNANT,Perm,46
3.4,AE,AERLPRT,Perm,47
3.4,AE,AERLPRC,Perm,48
3.4,AE,AECONTRT,Perm,49
3.4,AE,AETOXGR,Perm,50
3.4,AE,TAETORD,Perm,51
3.4,AE,EPOCH,Perm,52
3.4,AE,AESTDTC,Exp,53
3.4,AE,AEENDTC,Exp,54
3.4,AE,AESTDY,Perm,55
3.4,AE,AEENDY,Perm,56
3.4,AE,AEDUR,Perm,57
3.4,AE,AEENRF,Perm,58
3.4,AE,AEENRTPT,Perm,59
3.4,AE,AEENTPT,Perm,60
3.4,BE,STUDYID,Req,1
3.4,BE,DOMAIN,Req,2
3.4,BE,USUBJID,Req,3
3.4,BE,SPDEVID,Perm,4
3.4,BE,BESEQ,Req,5
3.4,BE,BEGRPID,Perm,6
3.4,BE,BEREFID,Exp,7
3.4,BE,BESPID,Perm,8
3.4,BE,BETERM,Req,9
3.4,BE,BEMODIFY,Perm,10
3.4,BE,BEDECOD,Perm,11
3.4,BE,BECAT,Perm,12
3.4,BE,BESCAT,Perm,13
3.4,BE,BELOC,Perm,14
3.4,BE,BEPARTY,Perm,15
3.4,BE,BEPRTYID,Perm,16
3.4,BE,VISITNUM,Exp,17
3.4,BE,VISIT,Perm,18
3.4,BE,VISITDY,Perm,19
3.4,BE,BEDTC,Exp,20
3.4,BE,BESTDTC,Exp,21
3.4,BE,BEENDTC,Exp,22
3.4,BE,BESTDY,Perm,23
3.4,BE,BEENDY,Perm,24
3.4,BE,BEDUR,Perm,25
3.4,CE,STUDYID,Req,1
3.4,CE,DOMAIN,Req,2
3.4,CE,USUBJID,Req,3
3.4,CE,CESEQ,Req,4
3.4,CE,CEGRPID,Perm,5
3.4,CE,CEREFID,Perm,6
3.4,CE,CESPID,Perm,7
3.4,CE,CETERM,Req,8
3.4,CE,CEDECOD,Perm,9
3.4,CE,CECAT,Perm,10
3.4,CE,CESCAT,Perm,11
3.4,CE,CEPRESP,Perm,12
3.4,CE,CEOCCUR,Perm,13
3.4,CE,CESTAT,Perm,14
3.4,CE,CEREASND,Perm,15
3.4,CE,CEBODSYS,Perm,16
3.4,CE,CESEV,Perm,17
3.4,CE,CETOXGR,Perm,18
3.4,CE,TAETORD,Perm,19
3.4,CE,EPOCH,Perm,20
3.4,CE,CEDTC,Perm,21
3.4,CE,CESTDTC,Perm,22
3.4,CE,CEENDTC,Perm,23
3.4,CE,CEDY,Perm,24
3.4,CE,CESTDY,Perm,25
3.4,CE,CEENDY,Perm,26
3.4,CE,CESTRF,Perm,27
3.4,CE,CEENRF,Perm,28
3.4,CE,CESTRTPT,Perm,29
3.4,CE,CESTTPT,Perm,30
3.4,CE,CEENRTPT,Perm,31
3.4,CE,CEENTPT,Perm,32
3.4,DS,STUDYID,Req,1
3.4,DS,DOMAIN,Req,2
3.4,DS,USUBJID,Req,3
3.4,DS,DSSEQ,Req,4
3.4,DS,DSGRPID,Perm,5
3.4,DS,DSREFID,Perm,6
3.4,DS,DSSPID,Perm,7
3.4,DS,DSTERM,Req,8
3.4,DS,DSDECOD,Req,9
3.4,DS,DSCAT,Exp,10
3.4,DS,DSSCAT,Perm,11
3.4,DS,EPOCH,Perm,12
3.4,DS,DSDTC,Perm,13
3.4,DS,DSSTDTC,Exp,14
3.4,DS,DSDY,Perm,15
3.4,DS,DSSTDY,Exp,16
3.4,DV,STUDYID,Req,1
3.4,DV,DOMAIN,Req,2
3.4,DV,USUBJID,Req,3
3.4,DV,DVSEQ,Req,4
3.4,DV,DVREFID,Perm,5
3.4,DV,DVSPID,Perm,6
3.4,DV,DVTERM,Req,7
3.4,DV,DVDECOD,Perm,8
3.4,DV,DVCAT,Perm,9
3.4,DV,DVSCAT,Perm,10
3.4,DV,TAETORD,Perm,11
3.4,DV,EPOCH,Perm,12
3.4,DV,DVSTDTC,Perm,13
3.4,DV,DVENDTC,Perm,14
3.4,DV,DVSTDY,Perm,15
3.4,DV,DVENDY,Perm,16
3.4,HO,STUDYID,Req,1
3.4,HO,DOMAIN,Req,2
3.4,HO,USUBJID,Req,3
3.4,HO,HOSEQ,Req,4
3.4,HO,HOGRPID,Perm,5
3.4,HO,HOREFID,Perm,6
3.4,HO,HOSPID,Perm,7
3.4,HO,HOTERM,Req,8
3.4,HO,HODECOD,Perm,9
3.4,HO,HOCAT,Perm,10
3.4,HO,HOSCAT,Perm,11
3.4,HO,HOPRESP,Perm,12
3.4,HO,HOOCCUR,Perm,13
3.4,HO,HOSTAT,Perm,14
3.4,HO,HOREASND,Perm,15
3.4,HO,TAETORD,Perm,16
3.4,HO,EPOCH,Perm,17
3.4,HO,HODTC,Perm,18
3.4,HO,HOSTDTC,Exp,19
3.4,HO,HOENDTC,Perm,20
3.4,HO,HODY,Perm,21
3.4,HO,HOSTDY,Perm,22
3.4,HO,HOENDY,Perm,23
3.4,HO,HODUR,Perm,24
3.4,HO,HOSTRTPT,Perm,25
3.4,HO,HOSTTPT,Perm,26
3.4,HO,HOENRTPT,Perm,27
3.4,HO,HOENTPT,Perm,28
3.4,MH,STUDYID,Req,1
3.4,MH,DOMAIN,Req,2
3.4,MH,USUBJID,Req,3
3.4,MH,MHSEQ,Req,4
3.4,MH,MHGRPID,Perm,5
3.4,MH,MHREFID,Perm,6
3.4,MH,MHSPID,Perm,7
3.4,MH,MHTERM,Req,8
3.4,MH,MHMODIFY,Perm,9
3.4,MH,MHDECOD,Perm,10
3.4,MH,MHEVDTYP,Perm,11
3.4,MH,MHCAT,Perm,12
3.4,MH,MHSCAT,Perm,13
3.4,MH,MHPRESP,Perm,14
3.4,MH,MHOCCUR,Perm,15
3.4,MH,MHSTAT,Perm,16
3.4,MH,MHREASND,Perm,17
3.4,MH,MHBODSYS,Perm,18
3.4,MH,TAETORD,Perm,19
3.4,MH,EPOCH,Perm,20
3.4,MH,MHDTC,Perm,21
3.4,MH,MHSTDTC,Perm,22
3.4,MH,MHENDTC,Perm,23
3.4,MH,MHDY,Perm,24
3.4,MH,MHENRF,Perm,25
3.4,MH,MHENRTPT,Perm,26
3.4,MH,MHENTPT,Perm,27
3.4,BS,STUDYID,Req,1
3.4,BS,DOMAIN,Req,2
3.4,BS,USUBJID,Req,3
3.4,BS,SPDEVID,Perm,4
3.4,BS,BSSEQ,Req,5
3.4,BS,BSGRPID,Perm,6
3.4,BS,BSREFID,Exp,7
3.4,BS,BSSPID,Perm,8
3.4,BS,BSTESTCD,Req,9
3.4,BS,BSTEST,Req,10
3.4,BS,BSCAT,Exp,11
3.4,BS,BSSCAT,Perm,12
3.4,BS,BSORRES,Exp,13
3.4,BS,BSORRESU,Exp,14
3.4,BS,BSSTRESC,Exp,15
3.4,BS,BSSTRESN,Exp,16
3.4,BS,BSSTRESU,Exp,17
3.4,BS,BSSTAT,Perm,18
3.4,BS,BSREASND,Perm,19
3.4,BS,BSNAM,Perm,20
3.4,BS,BSSPEC,Perm,21
3.4,BS,BSANTREG,Perm,22
3.4,BS,BSSPCCND,Perm,23
3.4,BS,BSMETHOD,Perm,24
3.4,BS,BSBLFL,Perm,25
3.4,BS,VISITNUM,Exp,26
3.4,BS,VISIT,Perm,27
3.4,BS,VISITDY,Perm,28
3.4,BS,BSDTC,Exp,29
3.4,BS,BSDY,Perm,30
3.4,BS,BSTPT,Perm,31
3.4,BS,BSTPTNUM,Perm,32
3.4,BS,BSELTM,Perm,33
3.4,BS,BSTPTREF,Perm,34
3.4,BS,BSRFTDTC,Perm,35
3.4,CP,STUDYID,Req,1
3.4,CP,DOMAIN,Req,2
3.4,CP,USUBJID,Req,3
3.4,CP,CPSEQ,Req,4
3.4,CP,CPGRPID,Perm,5
3.4,CP,CPREFID,Perm,6
3.4,CP,CPSPID,Perm,7
3.4,CP,CPLNKID,Perm,8
3.4,CP,CPLNKGRP,Perm,9
3.4,CP,CPTESTCD,Req,10
3.4,CP,CPTEST,Req,11
3.4,CP,CPSBMRKS,Perm,12
3.4,CP,CPCELSTA,Perm,13
3.4,CP,CPCSMRKS,Perm,14
3.4,CP,CPTSTCND,Perm,15
3.4,CP,CPCNDAGT,Perm,16
3.4,CP,CPBDAGNT,Perm,17
3.4,CP,CPABCLID,Perm,18
3.4,CP,CPMRKSTR,Exp,19
3.4,CP,CPGATE,Perm,20
3.4,CP,CPGATDEF,Perm,21
3.4,CP,CPSPTSTD,Perm,22
3.4,CP,CPCAT,Perm,23
3.4,CP,CPSCAT,Perm,24
3.4,CP,CPTSTPNL,Perm,25
3.4,CP,CPORRES,Exp,26
3.4,CP,CPORRESU,Perm,27
3.4,CP,CPRESSCL,Perm,28
3.4,CP,CPRESTYP,Perm,29
3.4,CP,CPCOLSRT,Perm,30
3.4,CP,CPORNRLO,Perm,31
3.4,CP,CPORNRHI,Perm,32
3.4,CP,CPSTRESC,Exp,33
3.4,CP,CPSTRESN,Perm,34
3.4,CP,CPSTRESU,Perm,35
3.4,CP,CPSTNRLO,Perm,36
3.4,CP,CPSTNRHI,Perm,37
3.4,CP,CPNRIND,Perm,38
3.4,CP,CPSTAT,Perm,39
3.4,CP,CPREASND,Perm,40
3.4,CP,CPNAM,Perm,41
3.4,CP,CPLOINC,Perm,42
3.4,CP,CPSPEC,Perm,43
3.4,CP,CPSPCCND,Perm,44
3.4,CP,CPMETHOD,Perm,45
3.4,CP,CPANMETH,Perm,46
3.4,CP,CPLOBXFL,Perm,47
3.4,CP,CPBLFL,Perm,48
3.4,CP,CPDRVFL,Perm,49
3.4,CP,CPCLSIG,Perm,50
3.4,CP,VISITNUM,Perm,51
3.4,CP,VISIT,Perm,52
3.4,CP,VISITDY,Perm,53
3.4,CP,TAETORD,Perm,54
3.4,CP,EPOCH,Perm,55
3.4,CP,CPDTC,Exp,56
3.4,CP,CPDY,Perm,57
3.4,CP,CPTPT,Perm,58
3.4,CP,CPTPTNUM,Perm,59
3.4,CP,CPELTM,Perm,60
3.4,CP,CPTPTREF,Perm,61
3.4,CP,CPRFTDTC,Perm,62
3.4,CV,STUDYID,Req,1
3.4,CV,DOMAIN,Req,2
3.4,CV,USUBJID,Req,3
3.4,CV,CVSEQ,Req,4
3.4,CV,CVGRPID,Perm,5
3.4,CV,CVREFID,Perm,6
3.4,CV,CVSPID,Perm,7
3.4,CV,CVLNKID,Perm,8
3.4,CV,CVLNKGRP,Perm,9
3.4,CV,CVTESTCD,Req,10
3.4,CV,CVTEST,Req,11
3.4,CV,CVCAT,Perm,12
3.4,CV,CVSCAT,Perm,13
3.4,CV,CVPOS,Perm,14
3.4,CV,CVORRES,Exp,15
3.4,CV,CVORRESU,Perm,16
3.4,CV,CVSTRESC,Exp,17
3.4,CV,CVSTRESN,Perm,18
3.4,CV,CVSTRESU,Perm,19
3.4,CV,CVSTAT,Perm,20
3.4,CV,CVREASND,Perm,21
3.4,CV,CVLOC,Perm,22
3.4,CV,CVLAT,Perm,23
3.4,CV,CVDIR,Perm,24
3.4,CV,CVMETHOD,Perm,25
3.4,CV,CVLOBXFL,Exp,26
3.4,CV,CVBLFL,Perm,27
3.4,CV,CVDRVFL,Perm,28
3.4,CV,CVEVAL,Perm,29
3.4,CV,CVEVALID,Perm,30
3.4,CV,VISITNUM,Exp,31
3.4,CV,VISIT,Perm,32
3.4,CV,VISITDY,Perm,33
3.4,CV,TAETORD,Perm,34
3.4,CV,EPOCH,Perm,35
3.4,CV,CVDTC,Exp,36
3.4,CV,CVDY,Perm,37
3.4,CV,CVTPT,Perm,38
3.4,CV,CVTPTNUM,Perm,39
3.4,CV,CVELTM,Perm,40
3.4,CV,CVTPTREF,Perm,41
3.4,CV,CVRFTDTC,Perm,42
3.4,DA,STUDYID,Req,1
3.4,DA,DOMAIN,Req,2
3.4,DA,USUBJID,Req,3
3.4,DA,DASEQ,Req,4
3.4,DA,DAGRPID,Perm,5
3.4,DA,DAREFID,Perm,6
3.4,DA,DASPID,Perm,7
3.4,DA,DALNKID,Perm,8
3.4,DA,DALNKGRP,Perm,9
3.4,DA,DATESTCD,Req,10
3.4,DA,DATEST,Req,11
3.4,DA,DACAT,Perm,12
3.4,DA,DASCAT,Perm,13
3.4,DA,DAORRES,Exp,14
3.4,DA,DAORRESU,Perm,15
3.4,DA,DASTRESC,Exp,16
3.4,DA,DASTRESN,Perm,17
3.4,DA,DASTRESU,Perm,18
3.4,DA,DASTAT,Perm,19
3.4,DA,DAREASND,Perm,20
3.4,DA,VISITNUM,Exp,21
3.4,DA,VISIT,Perm,22
3.4,DA,VISITDY,Perm,23
3.4,DA,TAETORD,Perm,24
3.4,DA,EPOCH,Perm,25
3.4,DA,DADTC,Exp,26
3.4,DA,DADY,Perm,27
3.4,DD,STUDYID,Req,1
3.4,DD,DOMAIN,Req,2
3.4,DD,USUBJID,Req,3
3.4,DD,DDSEQ,Req,4
3.4,DD,DDTESTCD,Req,5
3.4,DD,DDTEST,Req,6
3.4,DD,DDORRES,Exp,7
3.4,DD,DDSTRESC,Exp,8
3.4,DD,DDRESCAT,Perm,9
3.4,DD,DDEVAL,Perm,10
3.4,DD,DDDTC,Exp,11
3.4,DD,DDDY,Perm,12
3.4,EG,STUDYID,Req,1
3.4,EG,DOMAIN,Req,2
3.4,EG,USUBJID,Req,3
3.4,EG,SPDEVID,Perm,4
3.4,EG,EGSEQ,Req,5
3.4,EG,EGGRPID,Perm,6
3.4,EG,EGREFID,Perm,7
3.4,EG,EGSPID,Perm,8
3.4,EG,EGBEATNO,Perm,9
3.4,EG,EGTESTCD,Req,10
3.4,EG,EGTEST,Req,11
3.4,EG,EGCAT,Perm,12
3.4,EG,EGSCAT,Perm,13
3.4,EG,EGPOS,Perm,14
3.4,EG,EGORRES,Exp,15
3.4,EG,EGORRESU,Perm,16
3.4,EG,EGSTRESC,Exp,17
3.4,EG,EGSTRESN,Perm,18
3.4,EG,EGSTRESU,Perm,19
3.4,EG,EGSTAT,Perm,20
3.4,EG,EGREASND,Perm,21
3.4,EG,EGXFN,Perm,22
3.4,EG,EGNAM,Perm,23
3.4,EG,EGMETHOD,Perm,24
3.4,EG,EGLEAD,Perm,25
3.4,EG,EGLOBXFL,Exp,26
3.4,EG,EGBLFL,Perm,27
3.4,EG,EGDRVFL,Perm,28
3.4,EG,EGEVAL,Perm,29
3.4,EG,EGEVALID,Perm,30
3.4,EG,EGCLSIG,Perm,31
3.4,EG,EGREPNUM,Perm,32
3.4,EG,VISITNUM,Exp,33
3.4,EG,VISIT,Perm,34
3.4,EG,VISITDY,Perm,35
3.4,EG,TAETORD,Perm,36
3.4,EG,EPOCH,Perm,37
3.4,EG,EGDTC,Exp,38
3.4,EG,EGDY,Perm,39
3.4,EG,EGTPT,Perm,40
3.4,EG,EGTPTNUM,Perm,41
3.4,EG,EGELTM,Perm,42
3.4,EG,EGTPTREF,Perm,43
3.4,EG,EGRFTDTC,Perm,44
3.4,FT,STUDYID,Req,1
3.4,FT,DOMAIN,Req,2
3.4,FT,USUBJID,Req,3
3.4,FT,FTSEQ,Req,4
3.4,FT,FTGRPID,Perm,5
3.4,FT,FTREFID,Perm,6
3.4,FT,FTSPID,Perm,7
3.4,FT,FTTESTCD,Req,8
3.4,FT,FTTEST,Req,9
3.4,FT,FTCAT,Req,10
3.4,FT,FTSCAT,Perm,11
3.4,FT,FTPOS,Perm,12
3.4,FT,FTORRES,Exp,13
3.4,FT,FTORRESU,Perm,14
3.4,FT,FTSTRESC,Exp,15
3.4,FT,FTSTRESN,Perm,16
3.4,FT,FTSTRESU,Perm,17
3.4,FT,FTSTAT,Perm,18
3.4,FT,FTREASND,Perm,19
3.4,FT,FTXFN,Perm,20
3.4,FT,FTNAM,Perm,21
3.4,FT,FTMETHOD,Perm,22
3.4,FT,FTLOBXFL,Exp,23
3.4,FT,FTBLFL,Perm,24
3.4,FT,FTDRVFL,Perm,25
3.4,FT,FTREPNUM,Perm,26
3.4,FT,VISITNUM,Exp,27
3.4,FT,VISIT,Perm,28
3.4,FT,VISITDY,Perm,29
3.4,FT,TAETORD,Perm,30
3.4,FT,EPOCH,Perm,31
3.4,FT,FTDTC,Exp,32
3.4,FT,FTDY,Perm,33
3.4,FT,FTTPT,Perm,34
3.4,FT,FTTPTNUM,Perm,35
3.4,FT,FTELTM,Perm,36
3.4,FT,FTTPTREF,Perm,37
3.4,FT,FTRFTDTC,Perm,38
3.4,GF,STUDYID,Req,1
3.4,GF,DOMAIN,Req,2
3.4,GF,USUBJID,Req,3
3.4,GF,SPDEVID,Perm,4
3.4,GF,NHOID,Perm,5
3.4,GF,GFSEQ,Req,6
3.4,GF,GFGRPID,Perm,7
3.4,GF,GFREFID,Exp,8
3.4,GF,GFSPID,Perm,9
3.4,GF,GFLNKID,Perm,10
3.4,GF,GFLNKGRP,Perm,11
3.4,GF,GFTESTCD,Req,12
3.4,GF,GFTEST,Req,13
3.4,GF,GFTSTDTL,Perm,14
3.4,GF,GFCAT,Perm,15
3.4,GF,GFSCAT,Perm,16
3.4,GF,GFORRES,Exp,17
3.4,GF,GFORRESU,Perm,18
3.4,GF,GFORREF,Perm,19
3.4,GF,GFSTRESC,Exp,20
3.4,GF,GFSTRESN,Perm,21
3.4,GF,GFSTRESU,Perm,22
3.4,GF,GFSTREFC,Perm,23
3.4,GF,GFSTREFN,Perm,24
3.4,GF,GFRESCAT,Perm,25
3.4,GF,GFINHERT,Perm,26
3.4,GF,GFGENREF,Perm,27
3.4,GF,GFCHROM,Perm,28
3.4,GF,GFSYM,Perm,29
3.4,GF,GFSYMTYP,Perm,30
3.4,GF,GFGENLOC,Perm,31
3.4,GF,GFGENSR,Perm,32
3.4,GF,GFSEQID,Perm,33
3.4,GF,GFPVRID,Perm,34
3.4,GF,GFCOPYID,Perm,35
3.4,GF,GFSTAT,Perm,36
3.4,GF,GFREASND,Perm,37
3.4,GF,GFXFN,Perm,38
3.4,GF,GFNAM,Perm,39
3.4,GF,GFSPEC,Perm,40
3.4,GF,GFMETHOD,Exp,41
3.4,GF,GFRUNID,Perm,42
3.4,GF,GFANMETH,Perm,43
3.4,GF,GFBLFL,Perm,44
3.4,GF,GFDRVFL,Perm,45
3.4,GF,GFLLOQ,Perm,46
3.4,GF,GFREPNUM,Perm,47
3.4,GF,VISITNUM,Exp,48
3.4,GF,VISIT,Perm,49
3.4,GF,VISITDY,Perm,50
3.4,GF,GFDTC,Exp,51
3.4,GF,GFDY,Perm,52
3.4,GF,GFTPT,Perm,53
3.4,GF,GFTPTNUM,Perm,54
3.4,GF,GFELTM,Perm,55
3.4,GF,GFTPTREF,Perm,56
3.4,GF,GFRFTDTC,Perm,57
3.4,IE,STUDYID,Req,1
3.4,IE,DOMAIN,Req,2
3.4,IE,USUBJID,Req,3
3.4,IE,IESEQ,Req,4
3.4,IE,IESPID,Perm,5
3.4,IE,IETESTCD,Req,6
3.4,IE,IETEST,Req,7
3.4,IE,IECAT,Req,8
3.4,IE,IESCAT,Perm,9
3.4,IE,IEORRES,Req,10
3.4,IE,IESTRESC,Req,11
3.4,IE,VISITNUM,Perm,12
3.4,IE,VISIT,Perm,13
3.4,IE,VISITDY,Perm,14
3.4,IE,TAETORD,Perm,15
3.4,IE,EPOCH,Perm,16
3.4,IE,IEDTC,Perm,17
3.4,IE,IEDY,Perm,18
3.4,IS,STUDYID,Req,1
3.4,IS,DOMAIN,Req,2
3.4,IS,USUBJID,Req,3
3.4,IS,NHOID,Perm,4
3.4,IS,ISSEQ,Req,5
3.4,IS,ISGRPID,Perm,6
3.4,IS,ISREFID,Perm,7
3.4,IS,ISSPID,Perm,8
3.4,IS,ISTESTCD,Req,9
3.4,IS,ISTEST,Req,10
3.4,IS,ISTSTCND,Perm,11
3.4,IS,ISCNDAGT,Perm,12
3.4,IS,ISBDAGNT,Perm,13
3.4,IS,ISTSTOPO,Perm,14
3.4,IS,ISMSCBCE,Perm,15
3.4,IS,ISTSTDTL,Perm,16
3.4,IS,ISCAT,Perm,17
3.4,IS,ISSCAT,Perm,18
3.4,IS,ISORRES,Exp,19
3.4,IS,ISORRESU,Exp,20
3.4,IS,ISORNRLO,Exp,21
3.4,IS,ISORNRHI,Exp,22
3.4,IS,ISSTRESC,Exp,23
3.4,IS,ISSTRESN,Exp,24
3.4,IS,ISSTRESU,Exp,25
3.4,IS,ISSTNRLO,Exp,26
3.4,IS,ISSTNRHI,Exp,27
3.4,IS,ISSTNRC,Perm,28
3.4,IS,ISNRIND,Exp,29
3.4,IS,ISSTAT,Perm,30
3.4,IS,ISREASND,Perm,31
3.4,IS,ISNAM,Perm,32
3.4,IS,ISSPEC,Perm,33
3.4,IS,ISSPCCND,Perm,34
3.4,IS,ISSPCUFL,Perm,35
3.4,IS,ISMETHOD,Perm,36
3.4,IS,ISLOBXFL,Perm,37
3.4,IS,ISBLFL,Perm,38
3.4,IS,ISDRVFL,Perm,39
3.4,IS,ISLLOQ,Exp,40
3.4,IS,VISITNUM,Exp,41
3.4,IS,VISIT,Perm,42
3.4,IS,VISITDY,Perm,43
3.4,IS,TAETORD,Perm,44
3.4,IS,EPOCH,Perm,45
3.4,IS,ISDTC,Exp,46
3.4,IS,ISENDTC,Perm,47
3.4,IS,ISDY,Perm,48
3.4,IS,ISENDY,Perm,49
3.4,IS,ISTPT,Perm,50
3.4,IS,ISTPTNUM,Perm,51
3.4,IS,ISELTM,Perm,52
3.4,IS,ISTPTREF,Perm,53
3.4,IS,ISRFTDTC,Perm,54
3.4,LB,STUDYID,Req,1
3.4,LB,DOMAIN,Req,2
3.4,LB,USUBJID,Req,3
3.4,LB,LBSEQ,Req,4
3.4,LB,LBGRPID,Perm,5
3.4,LB,LBREFID,Perm,6
3.4,LB,LBSPID,Perm,7
3.4,LB,LBTESTCD,Req,8
3.4,LB,LBTEST,Req,9
3.4,LB,LBTSTCND,Perm,10
3.4,LB,LBBDAGNT,Perm,11
3.4,LB,LBTSTOPO,Perm,12
3.4,LB,LBCAT,Exp,13
3.4,LB,LBSCAT,Perm,14
3.4,LB,LBORRES,Exp,15
3.4,LB,LBORRESU,Exp,16
3.4,LB,LBRESSCL,Perm,17
3.4,LB,LBRESTYP,Perm,18
3.4,LB,LBCOLSRT,Perm,19
3.4,LB,LBORNRLO,Exp,20
3.4,LB,LBORNRHI,Exp,21
3.4,LB,LBLLOD,Perm,22
3.4,LB,LBSTRESC,Exp,23
3.4,LB,LBSTRESN,Exp,24
3.4,LB,LBSTRESU,Exp,25
3.4,LB,LBSTNRLO,Exp,26
3.4,LB,LBSTNRHI,Exp,27
3.4,LB,LBSTNRC,Perm,28
3.4,LB,LBNRIND,Exp,29
3.4,LB,LBSTAT,Perm,30
3.4,LB,LBREASND,Perm,31
3.4,LB,LBNAM,Perm,32
3.4,LB,LBLOINC,Perm,33
3.4,LB,LBSPEC,Perm,34
3.4,LB,LBSPCCND,Perm,35
3.4,LB,LBSPCUFL,Perm,36
3.4,LB,LBMETHOD,Perm,37
3.4,LB,LBANMETH,Perm,38
3.4,LB,LBTMTHSN,Perm,39
3.4,LB,LBLOBXFL,Exp,40
3.4,LB,LBBLFL,Perm,41
3.4,LB,LBFAST,Perm,42
3.4,LB,LBDRVFL,Perm,43
3.4,LB,LBTOX,Perm,44
3.4,LB,LBTOXGR,Perm,45
3.4,LB,LBCLSIG,Perm,46
3.4,LB,VISITNUM,Exp,47
3.4,LB,VISIT,Perm,48
3.4,LB,VISITDY,Perm,49
3.4,LB,TAETORD,Perm,50
3.4,LB,EPOCH,Perm,51
3.4,LB,LBDTC,Exp,52
3.4,LB,LBENDTC,Perm,53
3.4,LB,LBDY,Perm,54
3.4,LB,LBENDY,Perm,55
3.4,LB,LBTPT,Perm,56
3.4,LB,LBTPTNUM,Perm,57
3.4,LB,LBELTM,Perm,58
3.4,LB,LBTPTREF,Perm,59
3.4,LB,LBRFTDTC,Perm,60
3.4,LB,LBPTFL,Perm,61
3.4,LB,LBPDUR,Perm,62
3.4,MB,STUDYID,Req,1
3.4,MB,DOMAIN,Req,2
3.4,MB,USUBJID,Req,3
3.4,MB,FOCID,Perm,4
3.4,MB,MBSEQ,Req,5
3.4,MB,MBGRPID,Perm,6
3.4,MB,MBREFID,Perm,7
3.4,MB,MBSPID,Perm,8
3.4,MB,MBLNKID,Perm,9
3.4,MB,MBLNKGRP,Perm,10
3.4,MB,MBTESTCD,Req,11
3.4,MB,MBTEST,Req,12
3.4,MB,MBTSTDTL,Perm,13
3.4,MB,MBCAT,Perm,14
3.4,MB,MBSCAT,Perm,15
3.4,MB,MBORRES,Exp,16
3.4,MB,MBORRESU,Perm,17
3.4,MB,MBSTRESC,Exp,18
3.4,MB,MBSTRESN,Perm,19
3.4,MB,MBSTRESU,Perm,20
3.4,MB,MBRESCAT,Perm,21
3.4,MB,MBSTAT,Perm,22
3.4,MB,MBREASND,Perm,23
3.4,MB,MBNAM,Perm,24
3.4,MB,MBLOINC,Perm,25
3.4,MB,MBSPEC,Perm,26
3.4,MB,MBSPCCND,Perm,27
3.4,MB,MBLOC,Perm,28
3.4,MB,MBLAT,Perm,29
3.4,MB,MBDIR,Perm,30
3.4,MB,MBMETHOD,Exp,31
3.4,MB,MBLOBXFL,Perm,32
3.4,MB,MBBLFL,Perm,33
3.4,MB,MBFAST,Perm,34
3.4,MB,MBDRVFL,Perm,35
3.4,MB,VISITNUM,Exp,36
3.4,MB,VISIT,Perm,37
3.4,MB,VISITDY,Perm,38
3.4,MB,TAETORD,Perm,39
3.4,MB,EPOCH,Perm,40
3.4,MB,MBDTC,Exp,41
3.4,MB,MBDY,Perm,42
3.4,MB,MBTPT,Perm,43
3.4,MB,MBTPTNUM,Perm,44
3.4,MB,MBELTM,Perm,45
3.4,MB,MBTPTREF,Perm,46
3.4,MB,MBRFTDTC,Perm,47
3.4,MI,STUDYID,Req,1
3.4,MI,DOMAIN,Req,2
3.4,MI,USUBJID,Req,3
3.4,MI,MISEQ,Req,4
3.4,MI,MIGRPID,Perm,5
3.4,MI,MIREFID,Perm,6
3.4,MI,MISPID,Perm,7
3.4,MI,MITESTCD,Req,8
3.4,MI,MITEST,Req,9
3.4,MI,MITSTDTL,Perm,10
3.4,MI,MICAT,Perm,11
3.4,MI,MISCAT,Perm,12
3.4,MI,MIORRES,Exp,13
3.4,MI,MIORRESU,Perm,14
3.4,MI,MISTRESC,Exp,15
3.4,MI,MISTRESN,Perm,16
3.4,MI,MISTRESU,Perm,17
3.4,MI,MIRESCAT,Perm,18
3.4,MI,MISTAT,Perm,19
3.4,MI,MIREASND,Perm,20
3.4,MI,MINAM,Perm,21
3.4,MI,MISPEC,Req,22
3.4,MI,MISPCCND,Exp,23
3.4,MI,MILOC,Perm,24
3.4,MI,MILAT,Perm,25
3.4,MI,MIDIR,Perm,26
3.4,MI,MIMETHOD,Perm,27
3.4,MI,MILOBXFL,Exp,28
3.4,MI,MIBLFL,Perm,29
3.4,MI,MIEVAL,Perm,30
3.4,MI,VISITNUM,Exp,31
3.4,MI,VISIT,Perm,32
3.4,MI,VISITDY,Perm,33
3.4,MI,TAETORD,Perm,34
3.4,MI,EPOCH,Perm,35
3.4,MI,MIDTC,Exp,36
3.4,MI,MIDY,Perm,37
3.4,MK,STUDYID,Req,1
3.4,MK,DOMAIN,Req,2
3.4,MK,USUBJID,Req,3
3.4,MK,MKSEQ,Req,4
3.4,MK,MKGRPID,Perm,5
3.4,MK,MKREFID,Perm,6
3.4,MK,MKSPID,Perm,7
3.4,MK,MKLNKID,Perm,8
3.4,MK,MKLNKGRP,Perm,9
3.4,MK,MKTESTCD,Req,10
3.4,MK,MKTEST,Req,11
3.4,MK,MKCAT,Perm,12
3.4,MK,MKSCAT,Perm,13
3.4,MK,MKPOS,Perm,14
3.4,MK,MKORRES,Exp,15
3.4,MK,MKORRESU,Perm,16
3.4,MK,MKSTRESC,Exp,17
3.4,MK,MKSTRESN,Perm,18
3.4,MK,MKSTRESU,Perm,19
3.4,MK,MKSTAT,Perm,20
3.4,MK,MKREASND,Perm,21
3.4,MK,MKLOC,Exp,22
3.4,MK,MKLAT,Perm,23
3.4,MK,MKDIR,Perm,24
3.4,MK,MKMETHOD,Perm,25
3.4,MK,MKLOBXFL,Exp,26
3.4,MK,MKBLFL,Perm,27
3.4,MK,MKDRVFL,Perm,28
3.4,MK,MKEVAL,Perm,29
3.4,MK,MKEVALID,Perm,30
3.4,MK,VISITNUM,Exp,31
3.4,MK,VISIT,Perm,32
3.4,MK,VISITDY,Perm,33
3.4,MK,TAETORD,Perm,34
3.4,MK,EPOCH,Perm,35
3.4,MK,MKDTC,Exp,36
3.4,MK,MKDY,Perm,37
3.4,MK,MKTPT,Perm,38
3.4,MK,MKTPTNUM,Perm,39
3.4,MK,MKELTM,Perm,40
3.4,MK,MKTPTREF,Perm,41
3.4,MK,MKRFTDTC,Perm,42
3.4,MS,STUDYID,Req,1
3.4,MS,DOMAIN,Req,2
3.4,MS,USUBJID,Req,3
3.4,MS,NHOID,Perm,4
3.4,MS,MSSEQ,Req,5
3.4,MS,MSGRPID,Perm,6
3.4,MS,MSREFID,Perm,7
3.4,MS,MSSPID,Perm,8
3.4,MS,MSLNKID,Perm,9
3.4,MS,MSTESTCD,Req,10
3.4,MS,MSTEST,Req,11
3.4,MS,MSAGENT,Exp,12
3.4,MS,MSCONC,Perm,13
3.4,MS,MSCONCU,Perm,14
3.4,MS,MSTSTDTL,Perm,15
3.4,MS,MSCAT,Perm,16
3.4,MS,MSSCAT,Perm,17
3.4,MS,MSORRES,Exp,18
3.4,MS,MSORRESU,Perm,19
3.4,MS,MSSTRESC,Exp,20
3.4,MS,MSSTRESN,Perm,21
3.4,MS,MSSTRESU,Perm,22
3.4,MS,MSNRIND,Perm,23
3.4,MS,MSRESCAT,Perm,24
3.4,MS,MSSTAT,Perm,25
3.4,MS,MSREASND,Perm,26
3.4,MS,MSXFN,Perm,27
3.4,MS,MSNAM,Perm,28
3.4,MS,MSLOINC,Perm,29
3.4,MS,MSSPEC,Perm,30
3.4,MS,MSSPCCND,Perm,31
3.4,MS,MSLOC,Perm,32
3.4,MS,MSLAT,Perm,33
3.4,MS,MSDIR,Perm,34
3.4,MS,MSMETHOD,Perm,35
3.4,MS,MSANMETH,Perm,36
3.4,MS,MSLOBXFL,Perm,37
3.4,MS,MSBLFL,Perm,38
3.4,MS,MSFAST,Perm,39
3.4,MS,MSDRVFL,Perm,40
3.4,MS,MSEVAL,Perm,41
3.4,MS,MSEVALID,Perm,42
3.4,MS,MSACPTFL,Perm,43
3.4,MS,MSLLOQ,Perm,44
3.4,MS,MSULOQ,Perm,45
3.4,MS,MSREPNUM,Perm,46
3.4,MS,VISITNUM,Exp,47
3.4,MS,VISIT,Perm,48
3.4,MS,VISITDY,Perm,49
3.4,MS,TAETORD,Perm,50
3.4,MS,EPOCH,Perm,51
3.4,MS,MSDTC,Perm,52
3.4,MS,MSDY,Perm,53
3.4,MS,MSDUR,Perm,54
3.4,MS,MSTPT,Perm,55
3.4,MS,MSTPTNUM,Perm,56
3.4,MS,MSELTM,Perm,57
3.4,MS,MSTPTREF,Perm,58
3.4,MS,MSRFTDTC,Perm,59
3.4,MS,MSEVLINT,Perm,60
3.4,MS,MSEVINTX,Perm,61
3.4,NV,STUDYID,Req,1
3.4,NV,DOMAIN,Req,2
3.4,NV,USUBJID,Req,3
3.4,NV,FOCID,Perm,4
3.4,NV,NVSEQ,Req,5
3.4,NV,NVGRPID,Perm,6
3.4,NV,NVREFID,Perm,7
3.4,NV,NVSPID,Perm,8
3.4,NV,NVLNKID,Perm,9
3.4,NV,NVLNKGRP,Perm,10
3.4,NV,NVTESTCD,Req,11
3.4,NV,NVTEST,Req,12
3.4,NV,NVCAT,Perm,13
3.4,NV,NVSCAT,Perm,14
3.4,NV,NVORRES,Exp,15
3.4,NV,NVORRESU,Perm,16
3.4,NV,NVSTRESC,Exp,17
3.4,NV,NVSTRESN,Perm,18
3.4,NV,NVSTRESU,Perm,19
3.4,NV,NVSTAT,Perm,20
3.4,NV,NVREASND,Perm,21
3.4,NV,NVLOC,Perm,22
3.4,NV,NVLAT,Perm,23
3.4,NV,NVDIR,Perm,24
3.4,NV,NVMETHOD,Perm,25
3.4,NV,NVLOBXFL,Perm,26
3.4,NV,NVBLFL,Perm,27
3.4,NV,NVDRVFL,Perm,28
3.4,NV,NVEVAL,Perm,29
3.4,NV,NVEVALID,Perm,30
3.4,NV,VISITNUM,Exp,31
3.4,NV,VISIT,Perm,32
3.4,NV,VISITDY,Perm,33
3.4,NV,TAETORD,Perm,34
3.4,NV,EPOCH,Perm,35
3.4,NV,NVDTC,Exp,36
3.4,NV,NVDY,Perm,37
3.4,NV,NVTPT,Perm,38
3.4,NV,NVTPTNUM,Perm,39
3.4,NV,NVELTM,Perm,40
3.4,NV,NVTPTREF,Perm,41
3.4,NV,NVRFTDTC,Perm,42
3.4,OE,STUDYID,Req,1
3.4,OE,DOMAIN,Req,2
3.4,OE,USUBJID,Req,3
3.4,OE,FOCID,Perm,4
3.4,OE,OESEQ,Req,5
3.4,OE,OEGRPID,Perm,6
3.4,OE,OELNKID,Perm,7
3.4,OE,OELNKGRP,Perm,8
3.4,OE,OETESTCD,Req,9
3.4,OE,OETEST,Req,10
3.4,OE,OETSTDTL,Perm,11
3.4,OE,OECAT,Perm,12
3.4,OE,OESCAT,Perm,13
3.4,OE,OEORRES,Exp,14
3.4,OE,OEORRESU,Exp,15
3.4,OE,OEORNRLO,Perm,16
3.4,OE,OEORNRHI,Perm,17
3.4,OE,OESTRESC,Exp,18
3.4,OE,OESTRESN,Exp,19
3.4,OE,OESTRESU,Exp,20
3.4,OE,OESTNRLO,Perm,21
3.4,OE,OESTNRHI,Perm,22
3.4,OE,OESTNRC,Perm,23
3.4,OE,OENRIND,Perm,24
3.4,OE,OERESCAT,Perm,25
3.4,OE,OESTAT,Perm,26
3.4,OE,OEREASND,Perm,27
3.4,OE,OEXFN,Perm,28
3.4,OE,OELOC,Exp,29
3.4,OE,OELAT,Exp,30
3.4,OE,OEDIR,Perm,31
3.4,OE,OEPORTOT,Perm,32
3.4,OE,OEMETHOD,Exp,33
3.4,OE,OELOBXFL,Exp,34
3.4,OE,OEBLFL,Perm,35
3.4,OE,OEDRVFL,Perm,36
3.4,OE,OEEVAL,Perm,37
3.4,OE,OEEVALID,Perm,38
3.4,OE,OEACPTFL,Perm,39
3.4,OE,OEREPNUM,Perm,40
3.4,OE,VISITNUM,Exp,41
3.4,OE,VISIT,Perm,42
3.4,OE,VISITDY,Perm,43
3.4,OE,TAETORD,Perm,44
3.4,OE,EPOCH,Perm,45
3.4,OE,OEDTC,Exp,46
3.4,OE,OEDY,Exp,47
3.4,OE,OETPT,Perm,48
3.4,OE,OETPTNUM,Perm,49
3.4,OE,OEELTM,Perm,50
3.4,OE,OETPTREF,Perm,51
3.4,OE,OERFTDTC,Perm,52
3.4,PC,STUDYID,Req,1
3.4,PC,DOMAIN,Req,2
3.4,PC,USUBJID,Req,3
3.4,PC,PCSEQ,Req,4
3.4,PC,PCGRPID,Perm,5
3.4,PC,PCREFID,Perm,6
3.4,PC,PCSPID,Perm,7
3.4,PC,PCTESTCD,Req,8
3.4,PC,PCTEST,Req,9
3.4,PC,PCCAT,Perm,10
3.4,PC,PCSCAT,Perm,11
3.4,PC,PCORRES,Exp,12
3.4,PC,PCORRESU,Exp,13
3.4,PC,PCSTRESC,Exp,14
3.4,PC,PCSTRESN,Exp,15
3.4,PC,PCSTRESU,Exp,16
3.4,PC,PCSTAT,Perm,17
3.4,PC,PCREASND,Perm,18
3.4,PC,PCNAM,Exp,19
3.4,PC,PCSPEC,Exp,20
3.4,PC,PCSPCCND,Perm,21
3.4,PC,PCMETHOD,Perm,22
3.4,PC,PCFAST,Perm,23
3.4,PC,PCDRVFL,Perm,24
3.4,PC,PCLLOQ,Exp,25
3.4,PC,PCULOQ,Perm,26
3.4,PC,VISITNUM,Exp,27
3.4,PC,VISIT,Perm,28
3.4,PC,VISITDY,Perm,29
3.4,PC,TAETORD,Perm,30
3.4,PC,EPOCH,Perm,31
3.4,PC,PCDTC,Exp,32
3.4,PC,PCENDTC,Perm,33
3.4,PC,PCDY,Perm,34
3.4,PC,PCENDY,Perm,35
3.4,PC,PCTPT,Perm,36
3.4,PC,PCTPTNUM,Perm,37
3.4,PC,PCELTM,Perm,38
3.4,PC,PCTPTREF,Perm,39
3.4,PC,PCRFTDTC,Perm,40
3.4,PC,PCEVLINT,Perm,41
3.4,PE,STUDYID,Req,1
3.4,PE,DOMAIN,Req,2
3.4,PE,USUBJID,Req,3
3.4,PE,PESEQ,Req,4
3.4,PE,PEGRPID,Perm,5
3.4,PE,PESPID,Perm,6
3.4,PE,PETESTCD,Req,7
3.4,PE,PETEST,Req,8
3.4,PE,PEMODIFY,Perm,9
3.4,PE,PECAT,Perm,10
3.4,PE,PESCAT,Perm,11
3.4,PE,PEBODSYS,Perm,12
3.4,PE,PEORRES,Exp,13
3.4,PE,PEORRESU,Perm,14
3.4,PE,PESTRESC,Exp,15
3.4,PE,PESTAT,Perm,16
3.4,PE,PEREASND,Perm,17
3.4,PE,PELOC,Perm,18
3.4,PE,PELAT,Perm,19
3.4,PE,PEMETHOD,Perm,20
3.4,PE,PELOBXFL,Perm,21
3.4,PE,PEBLFL,Perm,22
3.4,PE,PEEVAL,Perm,23
3.4,PE,VISITNUM,Exp,24
3.4,PE,VISIT,Perm,25
3.4,PE,VISITDY,Perm,26
3.4,PE,TAETORD,Perm,27
3.4,PE,EPOCH,Perm,28
3.4,PE,PEDTC,Exp,29
3.4,PE,PEDY,Perm,30
3.4,PP,STUDYID,Req,1
3.4,PP,DOMAIN,Req,2
3.4,PP,USUBJID,Req,3
3.4,PP,PPSEQ,Req,4
3.4,PP,PPGRPID,Perm,5
3.4,PP,PPTESTCD,Req,6
3.4,PP,PPTEST,Req,7
3.4,PP,PPCAT,Exp,8
3.4,PP,PPSCAT,Perm,9
3.4,PP,PPORRES,Exp,10
3.4,PP,PPORRESU,Exp,11
3.4,PP,PPSTRESC,Exp,12
3.4,PP,PPSTRESN,Exp,13
3.4,PP,PPSTRESU,Exp,14
3.4,PP,PPSTAT,Perm,15
3.4,PP,PPREASND,Perm,16
3.4,PP,PPSPEC,Exp,17
3.4,PP,PPANMETH,Perm,18
3.4,PP,TAETORD,Perm,19
3.4,PP,EPOCH,Perm,20
3.4,PP,PPDTC,Perm,21
3.4,PP,PPDY,Perm,22
3.4,PP,PPTPTREF,Perm,23
3.4,PP,PPRFTDTC,Exp,24
3.4,PP,PPSTINT,Perm,25
3.4,PP,PPENINT,Perm,26
3.4,QS,STUDYID,Req,1
3.4,QS,DOMAIN,Req,2
3.4,QS,USUBJID,Req,3
3.4,QS,QSSEQ,Req,4
3.4,QS,QSGRPID,Perm,5
3.4,QS,QSSPID,Perm,6
3.4,QS,QSTESTCD,Req,7
3.4,QS,QSTEST,Req,8
3.4,QS,QSCAT,Req,9
3.4,QS,QSSCAT,Perm,10
3.4,QS,QSORRES,Exp,11
3.4,QS,QSORRESU,Perm,12
3.4,QS,QSSTRESC,Exp,13
3.4,QS,QSSTRESN,Perm,14
3.4,QS,QSSTRESU,Perm,15
3.4,QS,QSSTAT,Perm,16
3.4,QS,QSREASND,Perm,17
3.4,QS,QSMETHOD,Perm,18
3.4,QS,QSLOBXFL,Exp,19
3.4,QS,QSBLFL,Perm,20
3.4,QS,QSDRVFL,Perm,21
3.4,QS,VISITNUM,Exp,22
3.4,QS,VISIT,Perm,23
3.4,QS,VISITDY,Perm,24
3.4,QS,TAETORD,Perm,25
3.4,QS,EPOCH,Perm,26
3.4,QS,QSDTC,Exp,27
3.4,QS,QSDY,Perm,28
3.4,QS,QSTPT,Perm,29
3.4,QS,QSTPTNUM,Perm,30
3.4,QS,QSELTM,Perm,31
3.4,QS,QSTPTREF,Perm,32
3.4,QS,QSRFTDTC,Perm,33
3.4,QS,QSEVLINT,Perm,34
3.4,QS,QSEVINTX,Perm,35
3.4,RE,STUDYID,Req,1
3.4,RE,DOMAIN,Req,2
3.4,RE,USUBJID,Req,3
3.4,RE,SPDEVID,Perm,4
3.4,RE,RESEQ,Req,5
3.4,RE,REGRPID,Perm,6
3.4,RE,REREFID,Perm,7
3.4,RE,RESPID,Perm,8
3.4,RE,RELNKID,Perm,9
3.4,RE,RELNKGRP,Perm,10
3.4,RE,RETESTCD,Req,11
3.4,RE,RETEST,Req,12
3.4,RE,RECAT,Perm,13
3.4,RE,RESCAT,Perm,14
3.4,RE,REPOS,Perm,15
3.4,RE,REORRES,Exp,16
3.4,RE,REORRESU,Perm,17
3.4,RE,REORREF,Perm,18
3.4,RE,RESTRESC,Exp,19
3.4,RE,RESTRESN,Perm,20
3.4,RE,RESTRESU,Perm,21
3.4,RE,RESTREFC,Perm,22
3.4,RE,RESTREFN,Perm,23
3.4,RE,RESTAT,Perm,24
3.4,RE,REREASND,Perm,25
3.4,RE,RELOC,Perm,26
3.4,RE,RELAT,Perm,27
3.4,RE,REDIR,Perm,28
3.4,RE,REMETHOD,Perm,29
3.4,RE,RELOBXFL,Exp,30
3.4,RE,REBLFL,Perm,31
3.4,RE,REDRVFL,Perm,32
3.4,RE,REEVAL,Perm,33
3.4,RE,REEVALID,Perm,34
3.4,RE,REREPNUM,Perm,35
3.4,RE,VISITNUM,Exp,36
3.4,RE,VISIT,Perm,37
3.4,RE,VISITDY,Perm,38
3.4,RE,TAETORD,Perm,39
3.4,RE,EPOCH,Perm,40
3.4,RE,REDTC,Exp,41
3.4,RE,REDY,Perm,42
3.4,RE,RETPT,Perm,43
3.4,RE,RETPTNUM,Perm,44
3.4,RE,REELTM,Perm,45
3.4,RE,RETPTREF,Perm,46
3.4,RE,RERFTDTC,Perm,47
3.4,RP,STUDYID,Req,1
3.4,RP,DOMAIN,Req,2
3.4,RP,USUBJID,Req,3
3.4,RP,RPSEQ,Req,4
3.4,RP,RPGRPID,Perm,5
3.4,RP,RPREFID,Perm,6
3.4,RP,RPSPID,Perm,7
3.4,RP,RPLNKID,Perm,8
3.4,RP,RPLNKGRP,Perm,9
3.4,RP,RPTESTCD,Req,10
3.4,RP,RPTEST,Req,11
3.4,RP,RPCAT,Perm,12
3.4,RP,RPSCAT,Perm,13
3.4,RP,RPORRES,Exp,14
3.4,RP,RPORRESU,Perm,15
3.4,RP,RPSTRESC,Exp,16
3.4,RP,RPSTRESN,Perm,17
3.4,RP,RPSTRESU,Perm,18
3.4,RP,RPSTAT,Perm,19
3.4,RP,RPREASND,Perm,20
3.4,RP,RPLOBXFL,Perm,21
3.4,RP,RPBLFL,Perm,22
3.4,RP,RPDRVFL,Perm,23
3.4,RP,VISITNUM,Exp,24
3.4,RP,VISIT,Perm,25
3.4,RP,VISITDY,Perm,26
3.4,RP,TAETORD,Perm,27
3.4,RP,EPOCH,Perm,28
3.4,RP,RPDTC,Exp,29
3.4,RP,RPDY,Perm,30
3.4,RP,RPDUR,Perm,31
3.4,RP,RPTPT,Perm,32
3.4,RP,RPTPTNUM,Perm,33
3.4,RP,RPELTM,Perm,34
3.4,RP,RPTPTREF,Perm,35
3.4,RP,RPRFTDTC,Perm,36
3.4,RS,STUDYID,Req,1
3.4,RS,DOMAIN,Req,2
3.4,RS,USUBJID,Req,3
3.4,RS,RSSEQ,Req,4
3.4,RS,RSGRPID,Perm,5
3.4,RS,RSREFID,Perm,6
3.4,RS,RSSPID,Perm,7
3.4,RS,RSLNKID,Perm,8
3.4,RS,RSLNKGRP,Perm,9
3.4,RS,RSTESTCD,Req,10
3.4,RS,RSTEST,Req,11
3.4,RS,RSCAT,Exp,12
3.4,RS,RSSCAT,Perm,13
3.4,RS,RSORRES,Exp,14
3.4,RS,RSORRESU,Perm,15
3.4,RS,RSSTRESC,Exp,16
3.4,RS,RSSTRESN,Perm,17
3.4,RS,RSSTRESU,Perm,18
3.4,RS,RSSTAT,Perm,19
3.4,RS,RSREASND,Perm,20
3.4,RS,RSNAM,Perm,21
3.4,RS,RSMETHOD,Perm,22
3.4,RS,RSLOBXFL,Perm,23
3.4,RS,RSBLFL,Perm,24
3.4,RS,RSDRVFL,Perm,25
3.4,RS,RSEVAL,Perm,26
3.4,RS,RSEVALID,Perm,27
3.4,RS,RSACPTFL,Perm,28
3.4,RS,VISITNUM,Exp,29
3.4,RS,VISIT,Perm,30
3.4,RS,VISITDY,Perm,31
3.4,RS,TAETORD,Perm,32
3.4,RS,EPOCH,Perm,33
3.4,RS,RSDTC,Exp,34
3.4,RS,RSDY,Perm,35
3.4,RS,RSTPT,Perm,36
3.4,RS,RSTPTNUM,Perm,37
3.4,RS,RSELTM,Perm,38
3.4,RS,RSTPTREF,Perm,39
3.4,RS,RSRFTDTC,Perm,40
3.4,RS,RSEVLINT,Perm,41
3.4,RS,RSEVINTX,Perm,42
3.4,RS,RSSTRTPT,Perm,43
3.4,RS,RSSTTPT,Perm,44
3.4,RS,RSENRTPT,Perm,45
3.4,RS,RSENTPT,Perm,46
3.4,SC,STUDYID,Req,1
3.4,SC,DOMAIN,Req,2
3.4,SC,USUBJID,Req,3
3.4,SC,SCSEQ,Req,4
3.4,SC,SCGRPID,Perm,5
3.4,SC,SCSPID,Perm,6
3.4,SC,SCTESTCD,Req,7
3.4,SC,SCTEST,Req,8
3.4,SC,SCCAT,Perm,9
3.4,SC,SCSCAT,Perm,10
3.4,SC,SCORRES,Exp,11
3.4,SC,SCORRESU,Perm,12
3.4,SC,SCSTRESC,Exp,13
3.4,SC,SCSTRESN,Perm,14
3.4,SC,SCSTRESU,Perm,15
3.4,SC,SCSTAT,Perm,16
3.4,SC,SCREASND,Perm,17
3.4,SC,VISITNUM,Perm,18
3.4,SC,VISIT,Perm,19
3.4,SC,VISITDY,Perm,20
3.4,SC,TAETORD,Perm,21
3.4,SC,EPOCH,Perm,22
3.4,SC,SCDTC,Perm,23
3.4,SC,SCDY,Perm,24
3.4,SS,STUDYID,Req,1
3.4,SS,DOMAIN,Req,2
3.4,SS,USUBJID,Req,3
3.4,SS,SSSEQ,Req,4
3.4,SS,SSGRPID,Perm,5
3.4,SS,SSSPID,Perm,6
3.4,SS,SSTESTCD,Req,7
3.4,SS,SSTEST,Req,8
3.4,SS,SSCAT,Perm,9
3.4,SS,SSSCAT,Perm,10
3.4,SS,SSORRES,Exp,11
3.4,SS,SSSTRESC,Exp,12
3.4,SS,SSSTAT,Perm,13
3.4,SS,SSREASND,Perm,14
3.4,SS,SSEVAL,Perm,15
3.4,SS,VISITNUM,Exp,16
3.4,SS,VISIT,Perm,17
3.4,SS,VISITDY,Perm,18
3.4,SS,TAETORD,Perm,19
3.4,SS,EPOCH,Perm,20
3.4,SS,SSDTC,Exp,21
3.4,SS,SSDY,Perm,22
3.4,TR,STUDYID,Req,1
3.4,TR,DOMAIN,Req,2
3.4,TR,USUBJID,Req,3
3.4,TR,TRSEQ,Req,4
3.4,TR,TRGRPID,Perm,5
3.4,TR,TRREFID,Perm,6
3.4,TR,TRSPID,Perm,7
3.4,TR,TRLNKID,Exp,8
3.4,TR,TRLNKGRP,Perm,9
3.4,TR,TRTESTCD,Req,10
3.4,TR,TRTEST,Req,11
3.4,TR,TRORRES,Exp,12
3.4,TR,TRORRESU,Exp,13
3.4,TR,TRSTRESC,Exp,14
3.4,TR,TRSTRESN,Exp,15
3.4,TR,TRSTRESU,Exp,16
3.4,TR,TRSTAT,Perm,17
3.4,TR,TRREASND,Perm,18
3.4,TR,TRNAM,Perm,19
3.4,TR,TRMETHOD,Exp,20
3.4,TR,TRLOBXFL,Exp,21
3.4,TR,TRBLFL,Perm,22
3.4,TR,TREVAL,Exp,23
3.4,TR,TREVALID,Perm,24
3.4,TR,TRACPTFL,Perm,25
3.4,TR,VISITNUM,Exp,26
3.4,TR,VISIT,Perm,27
3.4,TR,VISITDY,Perm,28
3.4,TR,TAETORD,Perm,29
3.4,TR,EPOCH,Perm,30
3.4,TR,TRDTC,Exp,31
3.4,TR,TRDY,Perm,32
3.4,TU,STUDYID,Req,1
3.4,TU,DOMAIN,Req,2
3.4,TU,USUBJID,Req,3
3.4,TU,TUSEQ,Req,4
3.4,TU,TUGRPID,Perm,5
3.4,TU,TUREFID,Perm,6
3.4,TU,TUSPID,Perm,7
3.4,TU,TULNKID,Exp,8
3.4,TU,TULNKGRP,Perm,9
3.4,TU,TUTESTCD,Req,10
3.4,TU,TUTEST,Req,11
3.4,TU,TUORRES,Exp,12
3.4,TU,TUSTRESC,Exp,13
3.4,TU,TUNAM,Perm,14
3.4,TU,TULOC,Exp,15
3.4,TU,TULAT,Perm,16
3.4,TU,TUDIR,Perm,17
3.4,TU,TUPORTOT,Perm,18
3.4,TU,TUMETHOD,Exp,19
3.4,TU,TULOBXFL,Exp,20
3.4,TU,TUBLFL,Perm,21
3.4,TU,TUEVAL,Exp,22
3.4,TU,TUEVALID,Perm,23
3.4,TU,TUACPTFL,Perm,24
3.4,TU,VISITNUM,Exp,25
3.4,TU,VISIT,Perm,26
3.4,TU,VISITDY,Perm,27
3.4,TU,TAETORD,Perm,28
3.4,TU,EPOCH,Perm,29
3.4,TU,TUDTC,Exp,30
3.4,TU,TUDY,Perm,31
3.4,UR,STUDYID,Req,1
3.4,UR,DOMAIN,Req,2
3.4,UR,USUBJID,Req,3
3.4,UR,URSEQ,Req,4
3.4,UR,URGRPID,Perm,5
3.4,UR,URREFID,Perm,6
3.4,UR,URSPID,Perm,7
3.4,UR,URLNKID,Perm,8
3.4,UR,URLNKGRP,Perm,9
3.4,UR,URTESTCD,Req,10
3.4,UR,URTEST,Req,11
3.4,UR,URTSTDTL,Perm,12
3.4,UR,URCAT,Perm,13
3.4,UR,URSCAT,Perm,14
3.4,UR,URORRES,Exp,15
3.4,UR,URORRESU,Perm,16
3.4,UR,URSTRESC,Exp,17
3.4,UR,URSTRESN,Perm,18
3.4,UR,URSTRESU,Perm,19
3.4,UR,URRESCAT,Perm,20
3.4,UR,URSTAT,Perm,21
3.4,UR,URREASND,Perm,22
3.4,UR,URLOC,Perm,23
3.4,UR,URLAT,Perm,24
3.4,UR,URDIR,Perm,25
3.4,UR,URMETHOD,Perm,26
3.4,UR,URLOBXFL,Exp,27
3.4,UR,URBLFL,Perm,28
3.4,UR,URDRVFL,Perm,29
3.4,UR,UREVAL,Perm,30
3.4,UR,UREVALID,Perm,31
3.4,UR,VISITNUM,Exp,32
3.4,UR,VISIT,Perm,33
3.4,UR,VISITDY,Perm,34
3.4,UR,TAETORD,Perm,35
3.4,UR,EPOCH,Perm,36
3.4,UR,URDTC,Exp,37
3.4,UR,URDY,Perm,38
3.4,UR,URTPT,Perm,39
3.4,UR,URTPTNUM,Perm,40
3.4,UR,URELTM,Perm,41
3.4,UR,URTPTREF,Perm,42
3.4,UR,URRFTDTC,Perm,43
3.4,VS,STUDYID,Req,1
3.4,VS,DOMAIN,Req,2
3.4,VS,USUBJID,Req,3
3.4,VS,VSSEQ,Req,4
3.4,VS,VSGRPID,Perm,5
3.4,VS,VSSPID,Perm,6
3.4,VS,VSTESTCD,Req,7
3.4,VS,VSTEST,Req,8
3.4,VS,VSCAT,Perm,9
3.4,VS,VSSCAT,Perm,10
3.4,VS,VSPOS,Perm,11
3.4,VS,VSORRES,Exp,12
3.4,VS,VSORRESU,Exp,13
3.4,VS,VSSTRESC,Exp,14
3.4,VS,VSSTRESN,Exp,15
3.4,VS,VSSTRESU,Exp,16
3.4,VS,VSSTAT,Perm,17
3.4,VS,VSREASND,Perm,18
3.4,VS,VSLOC,Perm,19
3.4,VS,VSLAT,Perm,20
3.4,VS,VSLOBXFL,Exp,21
3.4,VS,VSBLFL,Perm,22
3.4,VS,VSDRVFL,Perm,23
3.4,VS,VSTOX,Perm,24
3.4,VS,VSTOXGR,Perm,25
3.4,VS,VSCLSIG,Perm,26
3.4,VS,VISITNUM,Exp,27
3.4,VS,VISIT,Perm,28
3.4,VS,VISITDY,Perm,29
3.4,VS,TAETORD,Perm,30
3.4,VS,EPOCH,Perm,31
3.4,VS,VSDTC,Exp,32
3.4,VS,VSDY,Perm,33
3.4,VS,VSTPT,Perm,34
3.4,VS,VSTPTNUM,Perm,35
3.4,VS,VSELTM,Perm,36
3.4,VS,VSTPTREF,Perm,37
3.4,VS,VSRFTDTC,Perm,38
3.4,FA,STUDYID,Req,1
3.4,FA,DOMAIN,Req,2
3.4,FA,USUBJID,Req,3
3.4,FA,FASEQ,Req,4
3.4,FA,FAGRPID,Perm,5
3.4,FA,FASPID,Perm,6
3.4,FA,FATESTCD,Req,7
3.4,FA,FATEST,Req,8
3.4,FA,FAOBJ,Req,9
3.4,FA,FACAT,Perm,10
3.4,FA,FASCAT,Perm,11
3.4,FA,FAORRES,Exp,12
3.4,FA,FAORRESU,Perm,13
3.4,FA,FASTRESC,Exp,14
3.4,FA,FASTRESN,Perm,15
3.4,FA,FASTRESU,Perm,16
3.4,FA,FASTAT,Perm,17
3.4,FA,FAREASND,Perm,18
3.4,FA,FALOC,Perm,19
3.4,FA,FALAT,Perm,20
3.4,FA,FALOBXFL,Perm,21
3.4,FA,FABLFL,Perm,22
3.4,FA,FAEVAL,Perm,23
3.4,FA,VISITNUM,Exp,24
3.4,FA,VISIT,Perm,25
3.4,FA,VISITDY,Perm,26
3.4,FA,TAETORD,Perm,27
3.4,FA,EPOCH,Perm,28
3.4,FA,FADTC,Exp,29
3.4,FA,FADY,Perm,30
3.4,SR,STUDYID,Req,1
3.4,SR,DOMAIN,Req,2
3.4,SR,USUBJID,Req,3
3.4,SR,SRSEQ,Req,4
3.4,SR,SRGRPID,Perm,5
3.4,SR,SRREFID,Perm,6
3.4,SR,SRSPID,Perm,7
3.4,SR,SRTESTCD,Req,8
3.4,SR,SRTEST,Req,9
3.4,SR,SROBJ,Req,10
3.4,SR,SRCAT,Perm,11
3.4,SR,SRSCAT,Perm,12
3.4,SR,SRORRES,Exp,13
3.4,SR,SRORRESU,Exp,14
3.4,SR,SRSTRESC,Exp,15
3.4,SR,SRSTRESN,Exp,16
3.4,SR,SRSTRESU,Exp,17
3.4,SR,SRSTAT,Perm,18
3.4,SR,SRREASND,Perm,19
3.4,SR,SRNAM,Perm,20
3.4,SR,SRSPEC,Perm,21
3.4,SR,SRLOC,Perm,22
3.4,SR,SRLAT,Perm,23
3.4,SR,SRMETHOD,Perm,24
3.4,SR,SRLOBXFL,Perm,25
3.4,SR,SRBLFL,Perm,26
3.4,SR,SREVAL,Perm,27
3.4,SR,VISITNUM,Exp,28
3.4,SR,VISIT,Perm,29
3.4,SR,VISITDY,Perm,30
3.4,SR,TAETORD,Perm,31
3.4,SR,EPOCH,Perm,32
3.4,SR,SRDTC,Exp,33
3.4,SR,SRDY,Perm,34
3.4,SR,SRTPT,Perm,35
3.4,SR,SRTPTNUM,Perm,36
3.4,SR,SRELTM,Perm,37
3.4,SR,SRTPTREF,Perm,38
3.4,SR,SRRFTDTC,Perm,39
3.4,CO,STUDYID,Req,1
3.4,CO,DOMAIN,Req,2
3.4,CO,RDOMAIN,Perm,3
3.4,CO,USUBJID,Req,4
3.4,CO,COSEQ,Req,5
3.4,CO,IDVAR,Perm,6
3.4,CO,IDVARVAL,Perm,7
3.4,CO,COREF,Perm,8
3.4,CO,COVAL,Req,9
3.4,CO,COEVAL,Perm,10
3.4,CO,COEVALID,Perm,11
3.4,CO,CODTC,Perm,12
3.4,CO,CODY,Perm,13
3.4,DM,STUDYID,Req,1
3.4,DM,DOMAIN,Req,2
3.4,DM,USUBJID,Req,3
3.4,DM,SUBJID,Req,4
3.4,DM,RFSTDTC,Exp,5
3.4,DM,RFENDTC,Exp,6
3.4,DM,RFXSTDTC,Exp,7
3.4,DM,RFXENDTC,Exp,8
3.4,DM,RFCSTDTC,Perm,9
3.4,DM,RFCENDTC,Perm,10
3.4,DM,RFICDTC,Exp,11
3.4,DM,RFPENDTC,Exp,12
3.4,DM,DTHDTC,Exp,13
3.4,DM,DTHFL,Exp,14
3.4,DM,SITEID,Req,15
3.4,DM,INVID,Perm,16
3.4,DM,INVNAM,Perm,17
3.4,DM,BRTHDTC,Perm,18
3.4,DM,AGE,Exp,19
3.4,DM,AGEU,Exp,20
3.4,DM,SEX,Req,21
3.4,DM,RACE,Exp,22
3.4,DM,ETHNIC,Perm,23
3.4,DM,ARMCD,Exp,24
3.4,DM,ARM,Exp,25
3.4,DM,ACTARMCD,Exp,26
3.4,DM,ACTARM,Exp,27
3.4,DM,ARMNRS,Exp,28
3.4,DM,ACTARMUD,Exp,29
3.4,DM,COUNTRY,Req,30
3.4,DM,DMDTC,Perm,31
3.4,DM,DMDY,Perm,32
3.4,SE,STUDYID,Req,1
3.4,SE,DOMAIN,Req,2
3.4,SE,USUBJID,Req,3
3.4,SE,SESEQ,Req,4
3.4,SE,ETCD,Req,5
3.4,SE,ELEMENT,Perm,6
3.4,SE,TAETORD,Perm,7
3.4,SE,EPOCH,Perm,8
3.4,SE,SESTDTC,Req,9
3.4,SE,SEENDTC,Exp,10
3.4,SE,SESTDY,Perm,11
3.4,SE,SEENDY,Perm,12
3.4,SE,SEUPDES,Perm,13
3.4,SM,STUDYID,Req,1
3.4,SM,DOMAIN,Req,2
3.4,SM,USUBJID,Req,3
3.4,SM,SMSEQ,Req,4
3.4,SM,MIDS,Req,5
3.4,SM,MIDSTYPE,Req,6
3.4,SM,SMSTDTC,Exp,7
3.4,SM,SMENDTC,Exp,8
3.4,SM,SMSTDY,Exp,9
3.4,SM,SMENDY,Exp,10
3.4,SV,STUDYID,Req,1
3.4,SV,DOMAIN,Req,2
3.4,SV,USUBJID,Req,3
3.4,SV,VISITNUM,Req,4
3.4,SV,VISIT,Perm,5
3.4,SV,SVPRESP,Exp,6
3.4,SV,SVOCCUR,Exp,7
3.4,SV,SVREASOC,Perm,8
3.4,SV,SVCNTMOD,Perm,9
3.4,SV,SVEPCHGI,Perm,10
3.4,SV,VISITDY,Perm,11
3.4,SV,SVSTDTC,Exp,12
3.4,SV,SVENDTC,Exp,13
3.4,SV,SVSTDY,Perm,14
3.4,SV,SVENDY,Perm,15
3.4,SV,SVUPDES,Perm,16
3.4,TA,STUDYID,Req,1
3.4,TA,DOMAIN,Req,2
3.4,TA,ARMCD,Req,3
3.4,TA,ARM,Req,4
3.4,TA,TAETORD,Req,5
3.4,TA,ETCD,Req,6
3.4,TA,ELEMENT,Perm,7
3.4,TA,TABRANCH,Exp,8
3.4,TA,TATRANS,Exp,9
3.4,TA,EPOCH,Req,10
3.4,TD,STUDYID,Req,1
3.4,TD,DOMAIN,Req,2
3.4,TD,TDORDER,Req,3
3.4,TD,TDANCVAR,Req,4
3.4,TD,TDSTOFF,Req,5
3.4,TD,TDTGTPAI,Req,6
3.4,TD,TDMINPAI,Req,7
3.4,TD,TDMAXPAI,Req,8
3.4,TD,TDNUMRPT,Req,9
3.4,TE,STUDYID,Req,1
3.4,TE,DOMAIN,Req,2
3.4,TE,ETCD,Req,3
3.4,TE,ELEMENT,Req,4
3.4,TE,TESTRL,Req,5
3.4,TE,TEENRL,Perm,6
3.4,TE,TEDUR,Perm,7
3.4,TI,STUDYID,Req,1
3.4,TI,DOMAIN,Req,2
3.4,TI,IETESTCD,Req,3
3.4,TI,IETEST,Req,4
3.4,TI,IECAT,Req,5
3.4,TI,IESCAT,Perm,6
3.4,TI,TIRL,Perm,7
3.4,TI,TIVERS,Perm,8
3.4,TM,STUDYID,Req,1
3.4,TM,DOMAIN,Req,2
3.4,TM,MIDSTYPE,Req,3
3.4,TM,TMDEF,Req,4
3.4,TM,TMRPT,Req,5
3.4,TS,STUDYID,Req,1
3.4,TS,DOMAIN,Req,2
3.4,TS,TSSEQ,Req,3
3.4,TS,TSGRPID,Perm,4
3.4,TS,TSPARMCD,Req,5
3.4,TS,TSPARM,Req,6
3.4,TS,TSVAL,Exp,7
3.4,TS,TSVALNF,Perm,8
3.4,TS,TSVALCD,Exp,9
3.4,TS,TSVCDREF,Exp,10
3.4,TS,TSVCDVER,Exp,11
3.4,TV,STUDYID,Req,1
3.4,TV,DOMAIN,Req,2
3.4,TV,VISITNUM,Req,3
3.4,TV,VISIT,Req,4
3.4,TV,VISITDY,Perm,5
3.4,TV,ARMCD,Exp,6
3.4,TV,ARM,Perm,7
3.4,TV,TVSTRL,Req,8
3.4,TV,TVENRL,Perm,9
3.4,OI,STUDYID,Req,1
3.4,OI,DOMAIN,Req,2
3.4,OI,NHOID,Req,3
3.4,OI,OISEQ,Req,4
3.4,OI,OIPARMCD,Req,5
3.4,OI,OIPARM,Req,6
3.4,OI,OIVAL,Req,7
3.4,RELREC,STUDYID,Req,1
3.4,RELREC,RDOMAIN,Req,2
3.4,RELREC,USUBJID,Exp,3
3.4,RELREC,IDVAR,Req,4
3.4,RELREC,IDVARVAL,Exp,5
3.4,RELREC,RELTYPE,Exp,6
3.4,RELREC,RELID,Req,7
3.4,RELSPEC,STUDYID,Req,1
3.4,RELSPEC,USUBJID,Req,2
3.4,RELSPEC,REFID,Req,3
3.4,RELSPEC,SPEC,Perm,4
3.4,RELSPEC,PARENT,Exp,5
3.4,RELSPEC,LEVEL,Req,6
3.4,RELSUB,STUDYID,Req,1
3.4,RELSUB,USUBJID,Exp,2
3.4,RELSUB,POOLID,Perm,3
3.4,RELSUB,RSUBJID,Req,4
3.4,RELSUB,SREL,Req,5
3.4,SUPPQUAL,STUDYID,Req,1
3.4,SUPPQUAL,RDOMAIN,Req,2
3.4,SUPPQUAL,USUBJID,Req,3
3.4,SUPPQUAL,IDVAR,Exp,4
3.4,SUPPQUAL,IDVARVAL,Exp,5
3.4,SUPPQUAL,QNAM,Req,6
3.4,SUPPQUAL,QLABEL,Req,7
3.4,SUPPQUAL,QVAL,Req,8
3.4,SUPPQUAL,QORIG,Req,9
3.4,SUPPQUAL,QEVAL,Exp,10
