STUDYID,DOMAIN,USUBJID,AESEQ,AELNKID,AETERM,AESEV,AESER,AEACN,AEREL,AEOUT,AESCAN,AESCONG,AESDISAB,AESDTH,AESHOSP,AESLIFE,AESOD,EPOCH,AESTDTC,AEENDTC,AESTDY,AEENDY,AEENRTPT,AEENTPT
CDISCPILOT01,AE,CDISC001,1,1,INJECTION SITE REACTION,MODERATE,N,DRUG WITHDRAWN,RELATED,NOT RECOVERED/NOT RESOLVED,N,N,N,N,N,N,N,TREATMENT,2012-12-02,,3,,ONGOING,2013-05-20
CDISCPILOT01,AE,CDISC001,2,2,FATIGUE,MODERATE,N,DOSE NOT CHANGED,UNLIKELY RELATED,NOT RECOVERED/NOT RESOLVED,N,N,N,N,N,N,N,TREATMENT,2013-01-14,,46,,ONGOING,2013-05-20
CDISCPILOT01,AE,CDISC002,1,1,INJECTION SITE REACTION,MILD,N,DOSE NOT CHANGED,POSSIBLY RELATED,NOT RECOVERED/NOT RESOLVED,N,N,N,N,N,N,N,TREATMENT,2012-11-16,,2,,ONGOING,2013-01-14
CDISCPILOT01,AE,CDISC002,2,2,SHOULDER PAIN,MILD,N,DOSE NOT CHANGED,NOT RELATED,NOT RECOVERED/NOT RESOLVED,N,N,N,N,N,N,N,TREATMENT,2012-11-21,,7,,ONGOING,2013-01-14
CDISCPILOT01,AE,CDISC002,3,3,JOINT DISLOCATION,MODERATE,N,DOSE NOT CHANGED,NOT RELATED,RECOVERED/RESOLVED,N,N,N,N,N,N,N,TREATMENT,2012-11-21,2012-11-21,7,7,,
CDISCPILOT01,AE,CDISC002,4,4,INCONTINENCE,MILD,N,DOSE NOT CHANGED,NOT RELATED,NOT RECOVERED/NOT RESOLVED,N,N,N,N,N,N,N,TREATMENT,2012-11-22,,8,,ONGOING,2013-01-14
CDISCPILOT01,AE,CDISC002,5,5,INJECTION SITE REACTION,MILD,N,DOSE NOT CHANGED,POSSIBLY RELATED,NOT RECOVERED/NOT RESOLVED,N,N,N,N,N,N,N,TREATMENT,2012-11-29,,15,,ONGOING,2013-01-14
CDISCPILOT01,AE,CDISC002,6,6,SKIN LACERATION,MILD,N,DOSE NOT CHANGED,NOT RELATED,NOT RECOVERED/NOT RESOLVED,N,N,N,N,N,N,N,TREATMENT,2012-12-09,,25,,ONGOING,2013-01-14
CDISCPILOT01,AE,CDISC002,7,7,CONFUSIONAL STATE,MODERATE,N,DOSE NOT CHANGED,NOT RELATED,NOT RECOVERED/NOT RESOLVED,N,N,N,N,N,N,N,TREATMENT,2013-01-11,,58,,ONGOING,2013-01-14
CDISCPILOT01,AE,CDISC002,8,8,DYSPNOEA,MODERATE,N,DOSE NOT CHANGED,NOT RELATED,NOT RECOVERED/NOT RESOLVED,N,N,N,N,N,N,N,TREATMENT,2013-01-11,,58,,ONGOING,2013-01-14
CDISCPILOT01,AE,CDISC002,9,9,SUDDEN DEATH,SEVERE,Y,DRUG WITHDRAWN,NOT RELATED,FATAL,N,N,N,Y,N,Y,N,TREATMENT,2013-01-14,2013-01-14,61,61,,
