STUDYID,DOMAIN,USUBJID,IESEQ,IETESTCD,IETEST,IECAT,IEORRES,IESTRESC,EPOCH,IEDTC,IEDY
CDISCPILOT01,IE,CDISC015,1,INCL03,Is not pregnant or nursing.,INCLUSION,N,N,SCREENING,2014-03-17,
CDISCPILOT01,IE,CDISC016,1,INCL03,Is not pregnant or nursing.,INCLUSION,N,N,SCREENING,2014-03-17,
CDISCPILOT01,IE,CDISC017,1,INCL03,Is not pregnant or nursing.,INCLUSION,N,N,SCREENING,2014-03-17,
