STUDYID,DOMAIN,USUBJID,SESEQ,ETCD,ELEMENT,EPOCH,SESTDTC,SEENDTC,SESTDY,SEENDY
CDISCPILOT01,SE,CDISC001,1,SCREEN,Screening,SCREENING,2012-11-23,2012-11-30,-7,1
CDISCPILOT01,SE,CDISC001,2,LOW,Zanomaline 54 mg,TREATMENT,2012-11-30,2013-05-20,1,172
CDISCPILOT01,SE,CDISC002,1,SCREEN,Screening,SCREENING,2012-10-30,2012-11-15,-16,1
CDISCPILOT01,SE,CDISC002,2,LOW,Zanomaline 54 mg,TREATMENT,2012-11-15,2013-01-14,1,61
CDISCPILOT01,SE,CDISC003,1,SCREEN,Screening,SCREENING,2013-08-20,2013-08-29,-9,1
CDISCPILOT01,SE,CDISC003,2,TITRATE,Zanomaline 54 mg Titration,TREATMENT,2013-08-29,2013-09-15,1,18
CDISCPILOT01,SE,CDISC003,3,HIGH,Zanomaline 81 mg,TREATMENT,2013-09-15,,18,
CDISCPILOT01,SE,CDISC004,1,SCREEN,Screening,SCREENING,2013-10-01,2013-10-08,-7,1
CDISCPILOT01,SE,CDISC004,2,PLACEBO,Placebo,TREATMENT,2013-10-08,2014-03-18,1,162
CDISCPILOT01,SE,CDISC005,1,SCREEN,Screening,SCREENING,2013-01-22,2013-02-04,-13,1
CDISCPILOT01,SE,CDISC005,2,TITRATE,Zanomaline 54 mg Titration,TREATMENT,2013-02-04,2013-02-19,1,16
CDISCPILOT01,SE,CDISC005,3,HIGH,Zanomaline 81 mg,TREATMENT,2013-02-19,2013-07-30,16,177
CDISCPILOT01,SE,CDISC005,4,TITRATE,Zanomaline 54 mg Titration,TREATMENT,2013-07-30,2013-08-06,177,184
