STUDYID,DOMAIN,USUBJID,FASEQ,FALNKGRP,FATESTCD,FATEST,FAOBJ,FACAT,FAORRES,FASTRESC,FALOC,VISITNUM,EPOCH,FADTC,FADY
CDISCPILOT01,FA,CDISC002,1,1,OCCUR,Occurrence Indicator,ERYTHEMA,INJECTION SITE REACTION,Y,Y,ARM,,TREATMENT,2012-12-02,18
CDISCPILOT01,FA,CDISC004,2,1,SEV,Severity/Intensity,ERYTHEMA,INJECTION SITE REACTION,MODERATE,MODERATE,ARM,,TREATMENT,2013-10-12,5
CDISCPILOT01,FA,CDISC006,3,1,OCCUR,Occurrence Indicator,PAIN,INJECTION SITE REACTION,N,N,ARM,,TREATMENT,2012-12-02,3
CDISCPILOT01,FA,CDISC007,4,1,OCCUR,Occurrence Indicator,INDURATION,INJECTION SITE REACTION,N,N,ARM,,TREATMENT,2012-12-02,-34
CDISCPILOT01,FA,CDISC008,5,1,OCCUR,Occurrence Indicator,PRURITIS,INJECTION SITE REACTION,N,N,ARM,,TREATMENT,2014-12-02,206
