STUDYID,DOMAIN,USUBJID,LBSEQ,LBTESTCD,LBTEST,LBCAT,LBORRES,LBORRESU,LBORNRLO,LBORNRHI,LBSTRESC,LBSTRESN,LBSTRESU,LBSTNRLO,LBSTNRHI,LBNRIND,LBLOBXFL,VISITNUM,VISIT,EPOCH,LBDTC,LBDY
CDISCPILOT01,LB,CDISC001,1,ALB,Albumin,CHEMISTRY,3.9,g/dL,3.5,4.6,39,39,g/L,35,46,NORMAL,Y,1,SCREENING 1,SCREENING,2012-11-23T11:20,-7
CDISCPILOT01,LB,CDISC001,2,ALP,Alkaline Phosphatase,CHEMISTRY,93,U/L,35,115,93,93,U/L,35,115,NORMAL,Y,1,SCREENING 1,SCREENING,2012-11-23T11:20,-7
CDISCPILOT01,LB,CDISC001,3,ALT,Alanine Aminotransferase,CHEMISTRY,18,U/L,6,35,18,18,U/L,6,35,NORMAL,Y,1,SCREENING 1,SCREENING,2012-11-23T11:20,-7
CDISCPILOT01,LB,CDISC001,4,AST,Aspartate Aminotransferase,CHEMISTRY,26,U/L,11,36,26,26,U/L,11,36,NORMAL,Y,1,SCREENING 1,SCREENING,2012-11-23T11:20,-7
CDISCPILOT01,LB,CDISC001,5,BASO,Basophils,HEMATOLOGY,0.03,10^9/L,0,0.2,0.03,0.03,10^9/L,0,0.2,NORMAL,Y,1,SCREENING 1,SCREENING,2012-11-23T11:20,-7
CDISCPILOT01,LB,CDISC001,6,BILI,Bilirubin,CHEMISTRY,0.5,mg/dL,0.2,1.2,8.55,8.549999999999999,umol/L,3,21,NORMAL,Y,1,SCREENING 1,SCREENING,2012-11-23T11:20,-7
