dataset,variable,label,type,length
sqapfamh,STUDYID,Study Identifier,Char,12
sqapfamh,RDOMAIN,Related Domain Abbreviation,Char,6
sqapfamh,USUBJID,Unique Subject Identifier,Char,8
sqapfamh,IDVAR,Identifying Variable,Char,200
sqapfamh,IDVARVAL,Identifying Variable Value,Char,200
sqapfamh,QNAM,Qualifier Variable Name,Char,5
sqapfamh,QLABEL,Qualifier Variable Label,Char,40
sqapfamh,QVAL,Data Value,Char,41
sqapfamh,QORIG,Origin,Char,13
sqapfamh,QEVAL,Evaluator,Char,200
