STUDYID,DOMAIN,USUBJID,DSSEQ,DSTERM,DSDECOD,DSCAT,DSSCAT,EPOCH,DSDY,DSSTDY,DSENDY
CDISCCORE01,DS,015246-300-0004-00002,5,ADVERSE EVENT,LAST CONTACT,DISPOSITION EVENT,,TREATMENT,22,44,65
CDISCCORE01,DS,015246-300-0004-00002,3,RANDOMIZED,RANDOMIZED,PROTOCOL MILESTONE,,,,-5,33
CDISCCORE01,DS,015246-300-0004-00002,3,RANDOMIZED,RANDOMIZED,PROTOCOL MILESTONE,,,-7,44,45
CDISCCORE01,DS,015246-300-0004-00002,3,RANDOMIZED,RANDOMIZED,PROTOCOL MILESTONE,,,,33,65
CDISCCORE01,DS,015246-300-0004-00002,3,RANDOMIZED,RANDOMIZED,PROTOCOL MILESTONE,,,5,56,-1
CDISCCORE01,DS,015246-300-0004-00002,5,ADVERSE EVENT,LAST CONTACT,DISPOSITION EVENT,,TREATMENT,3,12,12
