STUDYID,DOMAIN,USUBJID,DSSEQ,DSTERM,DSDECOD,DSCAT,DSSCAT
CDISCPILOT01,DS,CDISC001,1,INFORMED CONSENT OBTAINED,INFORMED CONSENT OBTAINED,PROTOCOL MILESTONE,
CDISCPILOT01,DS,CDISC001,2,INJECTION SITE REACTION,ADVERSE EVENT,DISPOSITION EVENT,STUDY PARTICIPATION
CDISCPILOT01,DS,CDISC001,3,INJECTION SITE REACTION,ADVERSE EVENT,DISPOSITION EVENT,STUDY TREATMENT
CDISCPILOT01,DS,CDISC002,1,INFORMED CONSENT OBTAINED,INFORMED CONSENT OBTAINED,PROTOCOL MILESTONE,
