STUDYID,DOMAIN,USUBJID,ECSEQ,ECTRT,ECPRESP,ECOCCUR
CDISCPILOT01,EC,CDISC001,1,ZANOMALINE,Y,Y
CDISCPILOT01,EC,CDISC001,2,ZANOMALINE,Y,N
CDISCPILOT01,EC,CDISC001,3,ZANOMALINE,Y,Y
CDISCPILOT01,EC,CDISC001,4,ZANOMALINE,,
