STUDYID,DOMAIN,USUBJID,HOSEQ,HOTERM,HOPRESP,HOOCCUR,HOSTAT
CDISCPILOT01,HO,CDISC001,1,HOSPITAL,Y,Y,
CDISCPILOT01,HO,CDISC001,2,NURSING HOME,Y,N,
CDISCPILOT01,HO,CDISC001,3,GENERAL WARD,Y,Y,
CDISCPILOT01,HO,CDISC002,1,INTENSIVE CARE,,,
