STUDYID,DOMAIN,USUBJID,PRSEQ,PRTRT,PRPRESP,PROCCUR,PRSTAT
CDISCPILOT01,PR,CDISC001,1,Wisdom Teeth Extraction,Y,N,
CDISCPILOT01,PR,CDISC001,2,Endoscopy,Y,Y,
CDISCPILOT01,PR,CDISC001,3,Heart Transplant,,,
