STUDYID,DOMAIN,USUBJID,CMSEQ,CMTRT,CMDOSE,CMDOSTXT,CMDOSU,CMDOSFRQ,CMSTDTC,CMENDTC
ABC,CM,ABC-0002,1,ASPIRIN,100,,mg,QD,2004-01-01 00:00:00,2004-01-03 00:00:00
ABC,CM,ABC-0002,2,ASPIRIN,100,,mg,BID,2004-01-07 00:00:00,2004-01-07 00:00:00
ABC,CM,ABC-0002,3,ASPIRIN,100,,mg,QD,2004-01-09 00:00:00,2004-01-09 00:00:00
ABC,CM,ABC-0003,1,ASPIRIN,,0.10-0.15,mg,PRN,2004-01-01 00:00:00,2004-01-09 00:00:00
ABC,CM,ABC-0004,1,TYLENOL,,10-15,mL,PRN,2004-01-01 00:00:00,2004-01-09 00:00:00
ABC,CM,ABC-0004,1,BENADRYL,,12.5-14.5,mg/mL,BID,2004-01-01 00:00:00,2004-01-09 00:00:00
