STUDYID,DOMAIN,USUBJID,EXSEQ,EXLNKID,EXTRT,EXDOSE,EXDOSTXT,EXDOSU,EXDOSFRM,EXDOSFRQ,EXROUTE,EXSTDTC,EXENDTC,EXSTDY,EXENDY
ABC,EX,ABC1001,1,A2-20110114,DRUG X,1000,,mg,"TABLET, EXTENDED RELEASE",QD,ORAL,2011-01-14 00:00:00,2011-01-28 00:00:00,1,15
ABC,EX,ABC2001,1,A2-20110114,DRUG Z,,500-600,mg,TABLET,QD,ORAL,2011-01-14 00:00:00,2011-01-23 00:00:00,1,10
ABC,EX,ABC2001,2,A2-20110125,DRUG Z,500,,mg,TABLET,QD,ORAL,2011-01-25 00:00:00,2011-01-28 00:00:00,12,15
