STUDYID,DOMAIN,USUBJID,AESEQ,AESPID,AETERM,AEDECOD,AEBODSYS,AESEV,AESER,AEACN,AEREL,AEOUT,AESCONG,AESDISAB,AESDTH,AESHOSP,AESLIFE,EPOCH,AESTDTC,AEENDTC,AESTDY,AEENDY,AEENRF
CDISCPILOT01,AE,CDISC001,1,1,INJECTION SITE REACTION,,Nervous system disorders,SEVERE,N,NOT APPLICABLE,DEFINITELY NOT RELATED,RECOVERED/RESOLVED,,,,,,SCREENING,2022-03-19,2022-03-19,-2,-2,
CDISCPILOT01,AE,CDISC001,2,2,,Fatigue,Nervous system disorders,SEVERE,N,NOT APPLICABLE,DEFINITELY NOT RELATED,RECOVERED/RESOLVED,,,,,,SCREENING,2022-03-20,2022-03-20,0,0,
