STUDYID,DOMAIN,USUBJID,AESEQ,AETERM,AEMODIFY,AEBODSYS,AESEV,AESER,AEACN,AEREL,AEOUT,AESCONG,AESDISAB,AESDTH,AESHOSP,AESLIFE,EPOCH,AESTDTC,AEENDTC,AESTDY,AEENDY,AEENRF
,AE,,1,HEADACHE,HEADACHE,Nervous system disorders,SEVERE,N,NOT APPLICABLE,DEFINITELY NOT RELATED,RECOVERED/RESOLVED,,,,,,SCREENING,2005-10-12,2005-10-12,-1,-1,
ABC123,AE,123101,2,BACK PAIN,BACK PAIN,Musculoskeletal and connective tissue disorders,MODERATE,N,DOSE REDUCED,PROBABLY RELATED,RECOVERED/RESOLVED,,,,,,TREATMENT,2005-10-13T13:05,2005-10-13T19:00,1,1,
ABC123,AE,123101,3,Flushing,,Vascular disorders,MODERATE,Y,DOSE REDUCED,PROBABLY NOT RELATED,RECOVERING/RESOLVING,,,,Y,Y,,2005-10-21,,9,,AFTER
