STUDYID,DOMAIN,USUBJID,MHSEQ,MHCAT,MHTERM,MHEVDTYP,MHSTDTC,MHSTDY
CDISCPILOT01,MH,CDISC001,1,DISEASE UNDER STUDY,ALZHEIMER'S DISEASE,SYMPTOM ONSET,2004-05-28,-3108
CDISCPILOT01,MH,CDISC002,1,DISEASE UNDER STUDY,ALZHEIMER'S DISEASE,SYMPTOM ONSET,2010-03-19,-972
CDISCPILOT01,MH,CDISC003,1,,ALZHEIMER'S DISEASE,SYMPTOM ONSET,2007-02-09,-2393
CDISCPILOT01,MH,CDISC004,1,,ALZHEIMER'S DISEASE,SYMPTOM ONSET,2010-11-05,-1068
CDISCPILOT01,MH,CDISC005,1,,ALZHEIMER'S DISEASE,SYMPTOM ONSET,2006-08-20,-2360
CDISCPILOT01,MH,CDISC006,1,,ALZHEIMER'S DISEASE,SYMPTOM ONSET,2008-06-17,-1736
CDISCPILOT01,MH,CDISC007,1,,ALZHEIMER'S DISEASE,SYMPTOM ONSET,2008-05-21,-1690
CDISCPILOT01,MH,CDISC008,1,,ALZHEIMER'S DISEASE,SYMPTOM ONSET,2012-11-11,-546
CDISCPILOT01,MH,CDISC009,1,,ALZHEIMER'S DISEASE,SYMPTOM ONSET,2008-09-02,-1511
