STUDYID,DOMAIN,RDOMAIN,USUBJID,COSEQ,IDVAR,IDVARVAL,COREF,COVAL,COVAL1,COVAL2,COEVAL,VISITNUM,CODTC,CODY
1234,CO,EX,ZZ-23,4,EXGRPID,COMBO1,PAGE 320-355,COVAL1 value ZZ-23,,,PRINCIPAL INVESTIGATOR,,,
1234,CO,PE,XX-11,6,VISITNUM,4,,COVAL1 value XX-11,COVAL2 value XX-11,COVAL3 value XX-11,PRINCIPAL INVESTIGATOR,,,
1234,CO,LB,YY-12,6,LBLOINC,comment with variable,,COVAL1 value YY-12,COVAL2 value YY-12,,PRINCIPAL INVESTIGATOR,,,
