STUDYID,DOMAIN,USUBJID,VSSEQ,VSTESTCD,VSTEST,VSPOS,VSORRES,VSORRESU,VSSTRESC,VSSTRESN,VSSTRESU,VSSTAT,VSLOC,VSLOBXFL,VSREPNUM,VISITNUM,VISIT,EPOCH,VSDTC,VSDY,VSTPT,VSTPTNUM,VSELTM,VSTPTREF
CDISCPILOT01,VS,CDISC001,3,DIABP,Diastolic Blood Pressure,STANDING,83,mmHg,83,83,mmHg,,,Y,,4,BASELINE,SCREENING,2012-11-30,1,4H PREDOSE,5,-PT4H,DOSE
CDISCPILOT01,VS,CDISC001,4,DIABP,Diastolic Blood Pressure,STANDING,79,mmHg,79,79,mmHg,,,,,4,WEEK 2,TREATMENT,2012-12-13,14,4H PREDOSE,5,-PT4H,DOSE
CDISCPILOT01,VS,CDISC002,6,DIABP,Diastolic Blood Pressure,SUPINE,77,mmHg,77,77,mmHg,,,,1,5,WEEK 6,TREATMENT,2013-01-10,42,10MIN POSTDOSE,10,10,DOSE
CDISCPILOT01,VS,CDISC002,7,DIABP,Diastolic Blood Pressure,STANDING,71,mmHg,71,71,mmHg,,,,2,5,WEEK 6,TREATMENT,2013-01-10,42,10MIN POSTDOSE,10,10,DOSE
