STUDYID,DOMAIN,USUBJID,AESEQ,AETERM,AESEV,AESER,AEACN,AEREL,AEOUT,AESCAN,AESCONG,AESDISAB,AESDTH,AESHOSP,AESLIFE,AESOD,AESMIE,EPOCH,AESTDTC,AEENDTC,AESTDY,AEENDY,AEENRTPT,AEENTPT
CDISCPILOT01,AE,CDISC001,1,INJECTION SITE REACTION,MODERATE,N,DRUG WITHDRAWN,RELATED,NOT RECOVERED/NOT RESOLVED,U,N,N,N,N,N,N,N,TREATMENT,2012-12-02,,3,,ONGOING,2013-05-20
