STUDYID,DOMAIN,USUBJID,FASEQ,FAGRPID,FATESTCD,FATEST,FAOBJ,FACAT,FAORRES,FASTRESC,FALOC,VISITNUM,EPOCH,FADTC,FADY
CDISCPILOT01,FA,CDISC001,1,3,OCCUR,Occurrence Indicator,"HYDROCORTISONE, TOPICAL",INJECTION SITE REACTION,Y,Y,ARM,,TREATMENT,2012-12-02,3
CDISCPILOT01,FA,CDISC001,2,2,SEV,Severity/Intensity,ERYTHEMA,INJECTION SITE REACTION,MODERATE,MODERATE,ARM,,TREATMENT,2012-12-02,3
CDISCPILOT01,FA,CDISC001,3,1,OCCUR,Occurrence Indicator,ASPIRIN,TREATMENT,Y,Y,,,TREATMENT,2012-12-02,3
