STUDYID,DOMAIN,USUBJID,EXSEQ,EXLNKID,EXLNKGRP,EXTRT,EXDOSE,EXDOSU,EXDOSFRM,EXDOSFRQ,EXROUTE,EXADJ,VISITNUM,VISIT,EPOCH,EXSTDTC,EXENDTC,EXSTDY,EXENDY
ABC123,EX,ABC123-0201,1,20090213T1000,V1,DRUG Z,9.9,mg/kg,SOLUTION,CONTINUOUS,INTRAVENOUS,,1,VISIT 1,TREATMENT,2009-02-13T10:00,2009-02-13T10:00,1,1
