STUDYID,DOMAIN,USUBJID,DSSEQ,DSTERM,DSDECOD,DSCAT,DSSCAT,EPOCH,DSDTC,DSSTDTC,DSDY,DSSTDY
CDISC-TEST,DS,S001,1,COMPLETED,COMPLETED,DISPOSITION EVENT,STUDY PARTICIPATION,SCREENING1,,,,
CDISC-TEST,DS,S001,2,COMPLETED,COMPLETED,DISPOSITION EVENT,STUDY PARTICIPATION,SCREENING2,,,,
CDISC-TEST,DS,S002,1,COMPLETED,COMPLETED,DISPOSITION EVENT,STUDY PARTICIPATION,TREATMENT,,,,
CDISC-TEST,DS,S002,2,COMPLETED,COMPLETED,DISPOSITION EVENT,STUDY PARTICIPATION2,TREATMENT,,,,
CDISC-TEST,DS,S002,3,COMPLETED,COMPLETED,DISPOSITION EVENT,STUDY PARTICIPATION3,TREATMENT,,,,
CDISC-TEST,DS,S002,4,COMPLETED,COMPLETED,DISPOSITION EVENT,STUDY PARTICIPATION,SCREENING2,,,,
