STUDYID,DOMAIN,USUBJID,CMSEQ,CMTRT,CMCAT,CMSCAT,CMINDC,CMDOSE,CMDOSU,CMDOSFRQ,CMROUTE,EPOCH,CMSTDTC,CMENDTC,CMSTDY,CMENDY,CMENRTPT,CMENTPT
CDISCPILOT01,CM,CDISC001,1,ASPIRIN,PRIOR MEDICATION,MEDS,PROPHYLAXIS OR NON-THERAPEUTIC USE,1,TABLET,QD,ORAL,SCREENING,2011,2013-04-29,,151,,
CDISCPILOT01,CM,CDISC001,2,METAMUCIL,PRIOR MEDICATION,MEDS,PROPHYLAXIS OR NON-THERAPEUTIC USE,1,TABLET,PRN,ORAL,SCREENING,2012-08,,,,ONGOING,2013-05-20
CDISCPILOT01,CM,CDISC001,3,"HYDROCORTISONE, TOPICAL",PRIOR MEDICATION,MEDS,PROPHYLAXIS OR NON-THERAPEUTIC USE,1,TABLET,BID,TOPICAL,TREATMENT,2013-01-11,,43,,ONGOING,2013-05-20
CDISCPILOT01,CM,CDISC001,4,HYTRIN,PRIOR MEDICATION,MEDS,PROPHYLAXIS OR NON-THERAPEUTIC USE,2,TABLET,Q4H,ORAL,TREATMENT,2013-04-19,2013-05-14,141,166,,
CDISCPILOT01,CM,CDISC001,5,ASPIRIN,,,PROPHYLAXIS OR NON-THERAPEUTIC USE,80,mg,QID,ORAL,TREATMENT,2013-04-29,,151,,ONGOING,2013-05-20
CDISCPILOT01,CM,CDISC001,6,FEOSOL,CONCOMITANT MEDICATION,MEDS,PROPHYLAXIS OR NON-THERAPEUTIC USE,325,mg,Q6H,ORAL,TREATMENT,2013-04-29,,151,,ONGOING,2013-05-20
CDISCPILOT01,CM,CDISC001,7,PRAVACHOL,,Concomitant/ Prior Medications,PROPHYLAXIS OR NON-THERAPEUTIC USE,20,mg,,ORAL,TREATMENT,2013-05-08,,160,,ONGOING,2013-05-20
CDISCPILOT01,CM,CDISC002,1,DEMEROL,,MEDS,PROPHYLAXIS OR NON-THERAPEUTIC USE,50,mg,,INTRAVENOUS,TREATMENT,2012-11-21,2012-11-21,7,7,,
CDISCPILOT01,CM,CDISC002,2,TYLENOL W/CODEINE NO. 3,,MEDS,PROPHYLAXIS OR NON-THERAPEUTIC USE,2,TABLET,,ORAL,TREATMENT,2012-11-21,2012-11-21,7,7,,
CDISCPILOT01,CM,CDISC002,3,HYDROCORTISONE,,MEDS,PROPHYLAXIS OR NON-THERAPEUTIC USE,1,TABLET,,TOPICAL,TREATMENT,2012-12-08,2013-01-14,24,61,,
