STUDYID,DOMAIN,USUBJID,FTSEQ,FTTEST,FTCAT,FTSCAT,FTORRES,FTSTRESC,FTSTRESN,FTLOBXFL,FTREPNUM,VISITNUM,VISIT,EPOCH,FTDTC,FTDY,FTTPT,FTTPTNUM,FTELTM,FTTPTREF
CDISCPILOT01,FT,CDISC001,1,AVL02-List A Word 1,AVLT-REY,FORM 1,RECALLED,RECALLED,,Y,1,2,SCREENING 2,SCREENING,2012-11-28T12:00,-2,,,,
