STUDYID,DOMAIN,USUBJID,MISEQ,MITESTCD,MITEST,MICAT,MISCAT,MIORRES,MIORRESU,MISTRESC,MISTRESN,MISTRESU,MIRESCAT,MISTAT
ABC,MI,ABC-1001,1,HER2,Human Epidermal Growth Factor Receptor 2,,,0,,0,0,,NEGATIVE,
ABC,MI,ABC-1002,1,HER2,Human Epidermal Growth Factor Receptor 2,,,2+,,2+,,,POSITIVE,
