STUDYID,DOMAIN,USUBJID,QSSEQ,QSTESTCD,QSTEST,QSCAT,QSORRES,QSSTRESC,QSSTRESN,QSLOBXFL,VISITNUM,VISIT,QSDTC,QSDY
CDISC01,QS,CDISC01.100008,1,CGI0201,CGI02-Severity,CGI,Moderate,4,4,Y,1,WEEK 1,2003-04-15,1
