STUDYID,DOMAIN,USUBJID,SESEQ,ETCD,ELEMENT,TAETORD,EPOCH,SESTDTC,SEENDTC,SESTDY,SEENDY,SEUPDES
CDISC01,SE,CDISC01.100008,1,SCRN,Screening,1,SCREENING,2006-06-01,2006-06-03,-2,1,
CDISC01,SE,CDISC01.100008,2,DBA,Drug A,2,BLINDED TREATMENT,2006-06-03,2006-06-10,1,8,
CDISC01,SE,CDISC01.100010,1,SCRN,Screening,1,SCREENING,2006-05-01,2006-05-03,-2,1,
CDISC01,SE,CDISC01.100010,2,DBA,Drug A,2,BLINDED TREATMENT,2006-05-03,2006-05-31,1,29,
CDISC01,SE,CDISC01.100010,3,UNPLAN,,,BLINDED TREATMENT,2006-05-31,2006-06-13,29,42,Drug B dispensed in error
CDISC01,SE,CDISC01.100010,4,RSC,Rescue Medication,3,OPEN LABEL TREATMENT,2006-06-13,2006-07-30,42,89,
