STUDYID,RDOMAIN,USUBJID,IDVAR,IDVARVAL,QNAM,QLABEL,QVAL,QORIG,QEVAL
CDISC01,QS,CDISC01.100008,QSSEQ,122,QSREASOC,Reason for Occur Value,INVESTIGATOR DECISION,ASSIGNED,
CDISC01,QS,CDISC01.100009,QSCAT,123,QSREASOC,Reason for Occur Value,INVESTIGATOR DECISION,COLLECTED,INVESTIGATOR
CDISC01,QS,CDISC01.100010,QSTESTCD,124,QSREASOC,Reason for Occur Value,INVESTIGATOR DECISION,COLLECTED,INVESTIGATOR
