STUDYID,DOMAIN,USUBJID,AESEQ,AEGRPID,AETERM,AESEV,AESER,AEACN,AEREL,AEOUT,AESCAN,AESCONG,AESDISAB,AESDTH,AESHOSP,AESLIFE,AESOD,EPOCH,AESTDTC,AEENDTC,AESTDY,AEENDY,AEDUR,AEENRTPT,AEENTPT
CDISCPILOT01,AE,CDISC001,1,1,OTHER,MODERATE,N,DRUG WITHDRAWN,RELATED,NOT RECOVERED/NOT RESOLVED,N,N,N,N,N,N,N,TREATMENT,2012-12-02,,3,,P1DT2H,ONGOING,2013-05-20
