STUDYID,DOMAIN,USUBJID,RSSEQ,RSTESTCD,RSTEST,RSORRES,RSSTRESC,RPDUR,RPBLFL,VISITNUM,VISIT,RSDTC,RSDY
STUDYX,RP,2324-P0002,7,BCMETHOD,Birth Control Method,DIAPHRAGM,DIAPHRAGM,P3Y,Y,1,SCREENING,2009-09-03,-10
