STUDYID,DOMAIN,USUBJID,LBSEQ,LBTESTCD,LBTEST,LBCAT,LBORRES,LBORRESU,LBORNRLO,LBORNRHI,LBSTRESC,LBSTRESN,LBSTRESU,LBSTNRLO,LBSTNRHI,LBNRIND,LBLOBXFL,VISITNUM,VISIT,EPOCH,LBDTC,LBDY
CDISCPILOT01,LB,CDISC004,1,ALB,Albumin,CHEMISTRY,4.5,g/dL,3.3,4.9,45,45,g/L,33,49,NORMAL,Y,1,SCREENING 1,SCREENING,2013-10-01T12:50,-7
CDISCPILOT01,LB,CDISC004,2,ALP,Alkaline Phosphatase,CHEMISTRY,60,U/L,35,115,60,60,U/L,35,115,NORMAL,Y,1,SCREENING 1,SCREENING,2013-10-01T12:50,-7
CDISCPILOT01,LB,CDISC004,3,ALT,Alanine Aminotransferase,CHEMISTRY,13,U/L,6,34,13,13,U/L,6,34,NORMAL,Y,1,SCREENING 1,SCREENING,2013-10-01T12:50,-7
CDISCPILOT01,LB,CDISC004,4,AST,Aspartate Aminotransferase,CHEMISTRY,22,U/L,9,34,22,22,U/L,9,34,NORMAL,Y,1,SCREENING 1,SCREENING,2013-10-01T12:50,-7
CDISCPILOT01,LB,CDISC004,5,BASO,Basophils,HEMATOLOGY,0.09,10^9/L,0,0.2,0.09,0.09,10^9/L,0,0.2,NORMAL,Y,1,SCREENING 1,SCREENING,2013-10-01T12:50,-7
CDISCPILOT01,LB,CDISC004,6,BILI,Bilirubin,CHEMISTRY,0.5,mg/dL,0.2,1.2,8.55,8.549999999999999,umol/L,3,21,NORMAL,Y,1,SCREENING 1,SCREENING,2013-10-01T12:50,-7
CDISCPILOT01,LB,CDISC004,7,UREAN,Urea Nitrogen,CHEMISTRY,14,mg/dL,4,24,4.998,4.997999999999999,mmol/L,1.4,8.6,NORMAL,Y,1,SCREENING 1,SCREENING,2013-10-01T12:50,-7
CDISCPILOT01,LB,CDISC004,8,CA,Calcium,CHEMISTRY,9.6,mg/dL,8.4,10.3,2.3952,2.3952,mmol/L,2.1,2.57,NORMAL,Y,1,SCREENING 1,SCREENING,2013-10-01T12:50,-7
CDISCPILOT01,LB,CDISC004,9,CHOL,Cholesterol,CHEMISTRY,227,mg/dL,156,300,5.87022,5.87022,mmol/L,4.029999999999999,7.76,NORMAL,Y,1,SCREENING 1,SCREENING,2013-10-01T12:50,-7
CDISCPILOT01,LB,CDISC004,10,CK,Creatine Kinase,CHEMISTRY,142,U/L,21,169,142,142,U/L,21,169,NORMAL,Y,1,SCREENING 1,SCREENING,2013-10-01T12:50,-7
CDISCPILOT01,LB,CDISC004,11,CL,Chloride,CHEMISTRY,104,mEq/L,94,112,104,104,mmol/L,94,112,NORMAL,Y,1,SCREENING 1,SCREENING,2013-10-01T12:50,-7
CDISCPILOT01,LB,CDISC004,12,COLOR,Color,URINALYSIS,NORMAL,,,,NORMAL,,,,,NORMAL,Y,1,SCREENING 1,SCREENING,2013-10-01T12:50,-7
CDISCPILOT01,LB,CDISC004,13,CREAT,Creatinine,CHEMISTRY,1.1,mg/dL,0.7,1.4,97.24,97.24,umol/L,62,124,NORMAL,Y,1,SCREENING 1,SCREENING,2013-10-01T12:50,-7
CDISCPILOT01,LB,CDISC004,14,EOS,Eosinophils,HEMATOLOGY,0.14,10^9/L,0,0.57,0.14,0.14,10^9/L,0,0.57,NORMAL,Y,1,SCREENING 1,SCREENING,2013-10-01T12:50,-7
CDISCPILOT01,LB,CDISC004,15,GGT,Gamma Glutamyl Transferase,CHEMISTRY,10,U/L,5,50,10,10,U/L,5,50,NORMAL,Y,1,SCREENING 1,SCREENING,2013-10-01T12:50,-7
CDISCPILOT01,LB,CDISC004,16,GLUC,Glucose,CHEMISTRY,85,mg/dL,50,250,4.71835,4.71835,mmol/L,2.8,13.9,NORMAL,Y,1,SCREENING 1,SCREENING,2013-10-01T12:50,-7
CDISCPILOT01,LB,CDISC004,17,HCT,Hematocrit,HEMATOLOGY,43.0,%,34,48,0.43,0.43,,0.34,0.48,NORMAL,Y,1,SCREENING 1,SCREENING,2013-10-01T12:50,-7
CDISCPILOT01,LB,CDISC004,18,HGB,Hemoglobin,HEMATOLOGY,13.9,g/dL,11.5,15.8,8.62634,8.62634,mmol/L,7.14,9.809999999999999,NORMAL,Y,1,SCREENING 1,SCREENING,2013-10-01T12:50,-7
CDISCPILOT01,LB,CDISC004,19,K,Potassium,CHEMISTRY,3.6,mEq/L,3.4,5.4,3.6,3.6,mmol/L,3.4,5.399999999999999,NORMAL,Y,1,SCREENING 1,SCREENING,2013-10-01T12:50,-7
CDISCPILOT01,LB,CDISC004,20,KETONES,Ketones,URINALYSIS,0,,,,0,0,,,,NORMAL,Y,1,SCREENING 1,SCREENING,2013-10-01T12:50,-7
CDISCPILOT01,LB,CDISC004,21,LYM,Lymphocytes,HEMATOLOGY,1.87,10^9/L,0.8,3,1.87,1.87,10^9/L,0.8,3,NORMAL,Y,1,SCREENING 1,SCREENING,2013-10-01T12:50,-7
CDISCPILOT01,LB,CDISC004,22,MCH,Ery. Mean Corpuscular Hemoglobin,HEMATOLOGY,28,pg,26,34,1.73768,1.73768,fmol,1.6,2.1,NORMAL,Y,1,SCREENING 1,SCREENING,2013-10-01T12:50,-7
CDISCPILOT01,LB,CDISC004,23,MCHC,Ery. Mean Corpuscular HGB Concentration,HEMATOLOGY,32,g/dL,31,38,19.8592,19.8592,mmol/L,19,24,NORMAL,Y,1,SCREENING 1,SCREENING,2013-10-01T12:50,-7
CDISCPILOT01,LB,CDISC004,24,MCV,Ery. Mean Corpuscular Volume,HEMATOLOGY,87,fL,80,100,87,87,fL,80,100,NORMAL,Y,1,SCREENING 1,SCREENING,2013-10-01T12:50,-7
CDISCPILOT01,LB,CDISC004,25,MONO,Monocytes,HEMATOLOGY,0.45,10^9/L,0.12,0.92,0.45,0.45,10^9/L,0.12,0.92,NORMAL,Y,1,SCREENING 1,SCREENING,2013-10-01T12:50,-7
CDISCPILOT01,LB,CDISC004,26,SODIUM,Sodium,CHEMISTRY,138,mEq/L,135,145,138,138,mmol/L,135,145,NORMAL,Y,1,SCREENING 1,SCREENING,2013-10-01T12:50,-7
CDISCPILOT01,LB,CDISC004,27,PH,pH,URINALYSIS,5,,5,8,5,5,,5,8,NORMAL,Y,1,SCREENING 1,SCREENING,2013-10-01T12:50,-7
CDISCPILOT01,LB,CDISC004,28,PHOS,Phosphate,CHEMISTRY,4.0,mg/dL,2.2,5.1,1.2916,1.2916,mmol/L,0.71,1.65,NORMAL,Y,1,SCREENING 1,SCREENING,2013-10-01T12:50,-7
CDISCPILOT01,LB,CDISC004,29,PLAT,Platelets,HEMATOLOGY,418,10^9/L,130,394,418,418,10^9/L,130,394,HIGH,Y,1,SCREENING 1,SCREENING,2013-10-01T12:50,-7
CDISCPILOT01,LB,CDISC004,30,PROT,Protein,CHEMISTRY,7.4,g/dL,6,8,74,74,g/L,60,80,NORMAL,Y,1,SCREENING 1,SCREENING,2013-10-01T12:50,-7
CDISCPILOT01,LB,CDISC004,31,RBC,Erythrocytes,HEMATOLOGY,5.00,10^12/L,3.9,5.5,5,5,10^12/L,3.9,5.5,NORMAL,Y,1,SCREENING 1,SCREENING,2013-10-01T12:50,-7
CDISCPILOT01,LB,CDISC004,32,SPGRAV,Specific Gravity,URINALYSIS,1.013,,1.006,1.03,1.013,1.013,,1.006,1.03,NORMAL,Y,1,SCREENING 1,SCREENING,2013-10-01T12:50,-7
CDISCPILOT01,LB,CDISC004,33,TSH,Thyrotropin,OTHER,.94,mIU/L,.32,5,.94,0.94,mU/L,0.32,5,NORMAL,Y,1,SCREENING 1,SCREENING,2013-10-01T12:50,-7
CDISCPILOT01,LB,CDISC004,34,URATE,Urate,CHEMISTRY,5.1,mg/dL,2.5,7.5,303.348,303.348,umol/L,149,446,NORMAL,Y,1,SCREENING 1,SCREENING,2013-10-01T12:50,-7
CDISCPILOT01,LB,CDISC004,35,UROBIL,Urobilinogen,URINALYSIS,0,,,,0,0,,,,NORMAL,Y,1,SCREENING 1,SCREENING,2013-10-01T12:50,-7
CDISCPILOT01,LB,CDISC004,36,VITB12,Vitamin B12,OTHER,302,ng/L,200,900,222.8156,222.8156,pmol/L,148,664,NORMAL,Y,1,SCREENING 1,SCREENING,2013-10-01T12:50,-7
CDISCPILOT01,LB,CDISC004,37,WBC,Leukocytes,HEMATOLOGY,8.60,10^9/L,3.8,10.7,8.6,8.6,10^9/L,3.8,10.7,NORMAL,Y,1,SCREENING 1,SCREENING,2013-10-01T12:50,-7
CDISCPILOT01,LB,CDISC004,38,ALB,Albumin,CHEMISTRY,4.1,g/dL,3.3,4.9,41,41,g/L,33,49,NORMAL,,4,WEEK 2,TREATMENT,2013-10-24T10:41,17
CDISCPILOT01,LB,CDISC004,39,ALP,Alkaline Phosphatase,CHEMISTRY,61,U/L,35,115,61,61,U/L,35,115,NORMAL,,4,WEEK 2,TREATMENT,2013-10-24T10:41,17
CDISCPILOT01,LB,CDISC004,40,ALT,Alanine Aminotransferase,CHEMISTRY,9,U/L,6,34,9,9,U/L,6,34,NORMAL,,4,WEEK 2,TREATMENT,2013-10-24T10:41,17
CDISCPILOT01,LB,CDISC004,41,AST,Aspartate Aminotransferase,CHEMISTRY,18,U/L,9,34,18,18,U/L,9,34,NORMAL,,4,WEEK 2,TREATMENT,2013-10-24T10:41,17
CDISCPILOT01,LB,CDISC004,42,BASO,Basophils,HEMATOLOGY,0.05,10^9/L,0,0.2,0.05,0.05,10^9/L,0,0.2,NORMAL,,4,WEEK 2,TREATMENT,2013-10-24T10:41,17
CDISCPILOT01,LB,CDISC004,43,BILI,Bilirubin,CHEMISTRY,0.4,mg/dL,0.2,1.2,6.84,6.84,umol/L,3,21,NORMAL,,4,WEEK 2,TREATMENT,2013-10-24T10:41,17
CDISCPILOT01,LB,CDISC004,44,UREAN,Urea Nitrogen,CHEMISTRY,15,mg/dL,4,24,5.355,5.355,mmol/L,1.4,8.6,NORMAL,,4,WEEK 2,TREATMENT,2013-10-24T10:41,17
CDISCPILOT01,LB,CDISC004,45,CA,Calcium,CHEMISTRY,9.2,mg/dL,8.4,10.3,2.2954,2.2954,mmol/L,2.1,2.57,NORMAL,,4,WEEK 2,TREATMENT,2013-10-24T10:41,17
CDISCPILOT01,LB,CDISC004,46,CHOL,Cholesterol,CHEMISTRY,198,mg/dL,156,300,5.12028,5.120279999999999,mmol/L,4.029999999999999,7.76,NORMAL,,4,WEEK 2,TREATMENT,2013-10-24T10:41,17
CDISCPILOT01,LB,CDISC004,47,CK,Creatine Kinase,CHEMISTRY,99,U/L,21,169,99,99,U/L,21,169,NORMAL,,4,WEEK 2,TREATMENT,2013-10-24T10:41,17
CDISCPILOT01,LB,CDISC004,48,CL,Chloride,CHEMISTRY,108,mEq/L,94,112,108,108,mmol/L,94,112,NORMAL,,4,WEEK 2,TREATMENT,2013-10-24T10:41,17
CDISCPILOT01,LB,CDISC004,49,COLOR,Color,URINALYSIS,NORMAL,,,,NORMAL,,,,,NORMAL,,4,WEEK 2,TREATMENT,2013-10-24T10:41,17
CDISCPILOT01,LB,CDISC004,50,CREAT,Creatinine,CHEMISTRY,1.0,mg/dL,0.7,1.4,88.4,88.39999999999998,umol/L,62,124,NORMAL,,4,WEEK 2,TREATMENT,2013-10-24T10:41,17
CDISCPILOT01,LB,CDISC004,51,EOS,Eosinophils,HEMATOLOGY,0.07,10^9/L,0,0.57,0.07,0.07,10^9/L,0,0.57,NORMAL,,4,WEEK 2,TREATMENT,2013-10-24T10:41,17
CDISCPILOT01,LB,CDISC004,52,GGT,Gamma Glutamyl Transferase,CHEMISTRY,9,U/L,5,50,9,9,U/L,5,50,NORMAL,,4,WEEK 2,TREATMENT,2013-10-24T10:41,17
CDISCPILOT01,LB,CDISC004,53,GLUC,Glucose,CHEMISTRY,81,mg/dL,50,250,4.49631,4.496309999999999,mmol/L,2.8,13.9,NORMAL,,4,WEEK 2,TREATMENT,2013-10-24T10:41,17
CDISCPILOT01,LB,CDISC004,54,HCT,Hematocrit,HEMATOLOGY,43.0,%,34,48,0.43,0.43,,0.34,0.48,NORMAL,,4,WEEK 2,TREATMENT,2013-10-24T10:41,17
CDISCPILOT01,LB,CDISC004,55,HGB,Hemoglobin,HEMATOLOGY,13.7,g/dL,11.5,15.8,8.50222,8.50222,mmol/L,7.14,9.809999999999999,NORMAL,,4,WEEK 2,TREATMENT,2013-10-24T10:41,17
CDISCPILOT01,LB,CDISC004,56,K,Potassium,CHEMISTRY,4.4,mEq/L,3.4,5.4,4.4,4.399999999999999,mmol/L,3.4,5.399999999999999,NORMAL,,4,WEEK 2,TREATMENT,2013-10-24T10:41,17
CDISCPILOT01,LB,CDISC004,57,KETONES,Ketones,URINALYSIS,0,,,,0,0,,,,NORMAL,,4,WEEK 2,TREATMENT,2013-10-24T10:41,17
CDISCPILOT01,LB,CDISC004,58,LYM,Lymphocytes,HEMATOLOGY,1.20,10^9/L,0.8,3,1.2,1.2,10^9/L,0.8,3,NORMAL,,4,WEEK 2,TREATMENT,2013-10-24T10:41,17
CDISCPILOT01,LB,CDISC004,59,MCH,Ery. Mean Corpuscular Hemoglobin,HEMATOLOGY,28,pg,26,34,1.73768,1.73768,fmol,1.6,2.1,NORMAL,,4,WEEK 2,TREATMENT,2013-10-24T10:41,17
CDISCPILOT01,LB,CDISC004,60,MCHC,Ery. Mean Corpuscular HGB Concentration,HEMATOLOGY,32,g/dL,31,38,19.8592,19.8592,mmol/L,19,24,NORMAL,,4,WEEK 2,TREATMENT,2013-10-24T10:41,17
CDISCPILOT01,LB,CDISC004,61,MCV,Ery. Mean Corpuscular Volume,HEMATOLOGY,87,fL,80,100,87,87,fL,80,100,NORMAL,,4,WEEK 2,TREATMENT,2013-10-24T10:41,17
CDISCPILOT01,LB,CDISC004,62,MONO,Monocytes,HEMATOLOGY,0.41,10^9/L,0.12,0.92,0.41,0.41,10^9/L,0.12,0.92,NORMAL,,4,WEEK 2,TREATMENT,2013-10-24T10:41,17
CDISCPILOT01,LB,CDISC004,63,SODIUM,Sodium,CHEMISTRY,141,mEq/L,135,145,141,141,mmol/L,135,145,NORMAL,,4,WEEK 2,TREATMENT,2013-10-24T10:41,17
CDISCPILOT01,LB,CDISC004,64,PH,pH,URINALYSIS,5,,5,8,5,5,,5,8,NORMAL,,4,WEEK 2,TREATMENT,2013-10-24T10:41,17
CDISCPILOT01,LB,CDISC004,65,PHOS,Phosphate,CHEMISTRY,4.1,mg/dL,2.2,5.1,1.32389,1.32389,mmol/L,0.71,1.65,NORMAL,,4,WEEK 2,TREATMENT,2013-10-24T10:41,17
CDISCPILOT01,LB,CDISC004,66,PLAT,Platelets,HEMATOLOGY,360,10^9/L,130,394,360,360,10^9/L,130,394,NORMAL,,4,WEEK 2,TREATMENT,2013-10-24T10:41,17
CDISCPILOT01,LB,CDISC004,67,PROT,Protein,CHEMISTRY,6.8,g/dL,6,8,68,68,g/L,60,80,NORMAL,,4,WEEK 2,TREATMENT,2013-10-24T10:41,17
CDISCPILOT01,LB,CDISC004,68,RBC,Erythrocytes,HEMATOLOGY,4.90,10^12/L,3.9,5.5,4.9,4.899999999999999,10^12/L,3.9,5.5,NORMAL,,4,WEEK 2,TREATMENT,2013-10-24T10:41,17
CDISCPILOT01,LB,CDISC004,69,SPGRAV,Specific Gravity,URINALYSIS,1.015,,1.006,1.03,1.015,1.015,,1.006,1.03,NORMAL,,4,WEEK 2,TREATMENT,2013-10-24T10:41,17
CDISCPILOT01,LB,CDISC004,70,URATE,Urate,CHEMISTRY,4.2,mg/dL,2.5,7.5,249.816,249.816,umol/L,149,446,NORMAL,,4,WEEK 2,TREATMENT,2013-10-24T10:41,17
CDISCPILOT01,LB,CDISC004,71,UROBIL,Urobilinogen,URINALYSIS,0,,,,0,0,,,,NORMAL,,4,WEEK 2,TREATMENT,2013-10-24T10:41,17
CDISCPILOT01,LB,CDISC004,72,WBC,Leukocytes,HEMATOLOGY,4.87,10^9/L,3.8,10.7,4.87,4.87,10^9/L,3.8,10.7,NORMAL,,4,WEEK 2,TREATMENT,2013-10-24T10:41,17
CDISCPILOT01,LB,CDISC004,73,ALB,Albumin,CHEMISTRY,4.7,g/dL,3.3,4.9,47,47,g/L,33,49,NORMAL,,5,WEEK 4,TREATMENT,2013-11-08T11:32,32
CDISCPILOT01,LB,CDISC004,74,ALP,Alkaline Phosphatase,CHEMISTRY,69,U/L,35,115,69,69,U/L,35,115,NORMAL,,5,WEEK 4,TREATMENT,2013-11-08T11:32,32
CDISCPILOT01,LB,CDISC004,75,ALT,Alanine Aminotransferase,CHEMISTRY,11,U/L,6,34,11,11,U/L,6,34,NORMAL,,5,WEEK 4,TREATMENT,2013-11-08T11:32,32
CDISCPILOT01,LB,CDISC004,76,AST,Aspartate Aminotransferase,CHEMISTRY,25,U/L,9,34,25,25,U/L,9,34,NORMAL,,5,WEEK 4,TREATMENT,2013-11-08T11:32,32
CDISCPILOT01,LB,CDISC004,77,BASO,Basophils,HEMATOLOGY,0.09,10^9/L,0,0.2,0.09,0.09,10^9/L,0,0.2,NORMAL,,5,WEEK 4,TREATMENT,2013-11-08T11:32,32
CDISCPILOT01,LB,CDISC004,78,BILI,Bilirubin,CHEMISTRY,0.5,mg/dL,0.2,1.2,8.55,8.549999999999999,umol/L,3,21,NORMAL,,5,WEEK 4,TREATMENT,2013-11-08T11:32,32
CDISCPILOT01,LB,CDISC004,79,UREAN,Urea Nitrogen,CHEMISTRY,12,mg/dL,4,24,4.284,4.284,mmol/L,1.4,8.6,NORMAL,,5,WEEK 4,TREATMENT,2013-11-08T11:32,32
CDISCPILOT01,LB,CDISC004,80,CA,Calcium,CHEMISTRY,9.4,mg/dL,8.4,10.3,2.3453,2.3453,mmol/L,2.1,2.57,NORMAL,,5,WEEK 4,TREATMENT,2013-11-08T11:32,32
CDISCPILOT01,LB,CDISC004,81,CHOL,Cholesterol,CHEMISTRY,220,mg/dL,156,300,5.6892,5.6892,mmol/L,4.029999999999999,7.76,NORMAL,,5,WEEK 4,TREATMENT,2013-11-08T11:32,32
CDISCPILOT01,LB,CDISC004,82,CK,Creatine Kinase,CHEMISTRY,140,U/L,21,169,140,140,U/L,21,169,NORMAL,,5,WEEK 4,TREATMENT,2013-11-08T11:32,32
CDISCPILOT01,LB,CDISC004,83,CL,Chloride,CHEMISTRY,111,mEq/L,94,112,111,111,mmol/L,94,112,NORMAL,,5,WEEK 4,TREATMENT,2013-11-08T11:32,32
CDISCPILOT01,LB,CDISC004,84,CREAT,Creatinine,CHEMISTRY,1.0,mg/dL,0.7,1.4,88.4,88.39999999999998,umol/L,62,124,NORMAL,,5,WEEK 4,TREATMENT,2013-11-08T11:32,32
CDISCPILOT01,LB,CDISC004,85,EOS,Eosinophils,HEMATOLOGY,0.08,10^9/L,0,0.57,0.08,0.08,10^9/L,0,0.57,NORMAL,,5,WEEK 4,TREATMENT,2013-11-08T11:32,32
CDISCPILOT01,LB,CDISC004,86,GGT,Gamma Glutamyl Transferase,CHEMISTRY,12,U/L,5,50,12,12,U/L,5,50,NORMAL,,5,WEEK 4,TREATMENT,2013-11-08T11:32,32
CDISCPILOT01,LB,CDISC004,87,GLUC,Glucose,CHEMISTRY,94,mg/dL,50,250,5.21794,5.21794,mmol/L,2.8,13.9,NORMAL,,5,WEEK 4,TREATMENT,2013-11-08T11:32,32
CDISCPILOT01,LB,CDISC004,88,HCT,Hematocrit,HEMATOLOGY,45.0,%,34,48,0.45,0.45,,0.34,0.48,NORMAL,,5,WEEK 4,TREATMENT,2013-11-08T11:32,32
CDISCPILOT01,LB,CDISC004,89,HGB,Hemoglobin,HEMATOLOGY,13.8,g/dL,11.5,15.8,8.56428,8.564279999999998,mmol/L,7.14,9.809999999999999,NORMAL,,5,WEEK 4,TREATMENT,2013-11-08T11:32,32
CDISCPILOT01,LB,CDISC004,90,K,Potassium,CHEMISTRY,4.7,mEq/L,3.4,5.4,4.7,4.699999999999999,mmol/L,3.4,5.399999999999999,NORMAL,,5,WEEK 4,TREATMENT,2013-11-08T11:32,32
CDISCPILOT01,LB,CDISC004,91,LYM,Lymphocytes,HEMATOLOGY,2.34,10^9/L,0.8,3,2.34,2.34,10^9/L,0.8,3,NORMAL,,5,WEEK 4,TREATMENT,2013-11-08T11:32,32
CDISCPILOT01,LB,CDISC004,92,MCH,Ery. Mean Corpuscular Hemoglobin,HEMATOLOGY,28,pg,26,34,1.73768,1.73768,fmol,1.6,2.1,NORMAL,,5,WEEK 4,TREATMENT,2013-11-08T11:32,32
CDISCPILOT01,LB,CDISC004,93,MCHC,Ery. Mean Corpuscular HGB Concentration,HEMATOLOGY,31,g/dL,31,38,19.2386,19.2386,mmol/L,19,24,NORMAL,,5,WEEK 4,TREATMENT,2013-11-08T11:32,32
CDISCPILOT01,LB,CDISC004,94,MCV,Ery. Mean Corpuscular Volume,HEMATOLOGY,90,fL,80,100,90,90,fL,80,100,NORMAL,,5,WEEK 4,TREATMENT,2013-11-08T11:32,32
CDISCPILOT01,LB,CDISC004,95,MONO,Monocytes,HEMATOLOGY,0.69,10^9/L,0.12,0.92,0.69,0.69,10^9/L,0.12,0.92,NORMAL,,5,WEEK 4,TREATMENT,2013-11-08T11:32,32
CDISCPILOT01,LB,CDISC004,96,SODIUM,Sodium,CHEMISTRY,143,mEq/L,135,145,143,143,mmol/L,135,145,NORMAL,,5,WEEK 4,TREATMENT,2013-11-08T11:32,32
CDISCPILOT01,LB,CDISC004,97,PHOS,Phosphate,CHEMISTRY,4.1,mg/dL,2.2,5.1,1.32389,1.32389,mmol/L,0.71,1.65,NORMAL,,5,WEEK 4,TREATMENT,2013-11-08T11:32,32
CDISCPILOT01,LB,CDISC004,98,PLAT,Platelets,HEMATOLOGY,397,10^9/L,130,394,397,397,10^9/L,130,394,HIGH,,5,WEEK 4,TREATMENT,2013-11-08T11:32,32
CDISCPILOT01,LB,CDISC004,99,PROT,Protein,CHEMISTRY,7.6,g/dL,6,8,76,76,g/L,60,80,NORMAL,,5,WEEK 4,TREATMENT,2013-11-08T11:32,32
CDISCPILOT01,LB,CDISC004,100,RBC,Erythrocytes,HEMATOLOGY,5.00,10^12/L,3.9,5.5,5,5,10^12/L,3.9,5.5,NORMAL,,5,WEEK 4,TREATMENT,2013-11-08T11:32,32
CDISCPILOT01,LB,CDISC004,101,URATE,Urate,CHEMISTRY,4.3,mg/dL,2.5,7.5,255.764,255.764,umol/L,149,446,NORMAL,,5,WEEK 4,TREATMENT,2013-11-08T11:32,32
CDISCPILOT01,LB,CDISC004,102,WBC,Leukocytes,HEMATOLOGY,7.73,10^9/L,3.8,10.7,7.73,7.73,10^9/L,3.8,10.7,NORMAL,,5,WEEK 4,TREATMENT,2013-11-08T11:32,32
CDISCPILOT01,LB,CDISC004,103,ALB,Albumin,CHEMISTRY,4.3,g/dL,3.3,4.9,43,43,g/L,33,49,NORMAL,,7,WEEK 6,TREATMENT,2013-11-19T13:22,43
CDISCPILOT01,LB,CDISC004,104,ALP,Alkaline Phosphatase,CHEMISTRY,65,U/L,35,115,65,65,U/L,35,115,NORMAL,,7,WEEK 6,TREATMENT,2013-11-19T13:22,43
CDISCPILOT01,LB,CDISC004,105,ALT,Alanine Aminotransferase,CHEMISTRY,10,U/L,6,34,10,10,U/L,6,34,NORMAL,,7,WEEK 6,TREATMENT,2013-11-19T13:22,43
CDISCPILOT01,LB,CDISC004,106,AST,Aspartate Aminotransferase,CHEMISTRY,22,U/L,9,34,22,22,U/L,9,34,NORMAL,,7,WEEK 6,TREATMENT,2013-11-19T13:22,43
CDISCPILOT01,LB,CDISC004,107,BASO,Basophils,HEMATOLOGY,0.09,10^9/L,0,0.2,0.09,0.09,10^9/L,0,0.2,NORMAL,,7,WEEK 6,TREATMENT,2013-11-19T13:22,43
CDISCPILOT01,LB,CDISC004,108,BILI,Bilirubin,CHEMISTRY,0.4,mg/dL,0.2,1.2,6.84,6.84,umol/L,3,21,NORMAL,,7,WEEK 6,TREATMENT,2013-11-19T13:22,43
CDISCPILOT01,LB,CDISC004,109,UREAN,Urea Nitrogen,CHEMISTRY,13,mg/dL,4,24,4.641,4.641,mmol/L,1.4,8.6,NORMAL,,7,WEEK 6,TREATMENT,2013-11-19T13:22,43
CDISCPILOT01,LB,CDISC004,110,CA,Calcium,CHEMISTRY,9.3,mg/dL,8.4,10.3,2.32035,2.32035,mmol/L,2.1,2.57,NORMAL,,7,WEEK 6,TREATMENT,2013-11-19T13:22,43
CDISCPILOT01,LB,CDISC004,111,CHOL,Cholesterol,CHEMISTRY,203,mg/dL,156,300,5.24958,5.24958,mmol/L,4.029999999999999,7.76,NORMAL,,7,WEEK 6,TREATMENT,2013-11-19T13:22,43
CDISCPILOT01,LB,CDISC004,112,CK,Creatine Kinase,CHEMISTRY,134,U/L,21,169,134,134,U/L,21,169,NORMAL,,7,WEEK 6,TREATMENT,2013-11-19T13:22,43
CDISCPILOT01,LB,CDISC004,113,CL,Chloride,CHEMISTRY,106,mEq/L,94,112,106,106,mmol/L,94,112,NORMAL,,7,WEEK 6,TREATMENT,2013-11-19T13:22,43
CDISCPILOT01,LB,CDISC004,114,CREAT,Creatinine,CHEMISTRY,0.9,mg/dL,0.7,1.4,79.56,79.55999999999999,umol/L,62,124,NORMAL,,7,WEEK 6,TREATMENT,2013-11-19T13:22,43
CDISCPILOT01,LB,CDISC004,115,EOS,Eosinophils,HEMATOLOGY,0.09,10^9/L,0,0.57,0.09,0.09,10^9/L,0,0.57,NORMAL,,7,WEEK 6,TREATMENT,2013-11-19T13:22,43
CDISCPILOT01,LB,CDISC004,116,GGT,Gamma Glutamyl Transferase,CHEMISTRY,10,U/L,5,50,10,10,U/L,5,50,NORMAL,,7,WEEK 6,TREATMENT,2013-11-19T13:22,43
CDISCPILOT01,LB,CDISC004,117,GLUC,Glucose,CHEMISTRY,107,mg/dL,50,250,5.93957,5.93957,mmol/L,2.8,13.9,NORMAL,,7,WEEK 6,TREATMENT,2013-11-19T13:22,43
CDISCPILOT01,LB,CDISC004,118,HCT,Hematocrit,HEMATOLOGY,39.0,%,34,48,0.39,0.39,,0.34,0.48,NORMAL,,7,WEEK 6,TREATMENT,2013-11-19T13:22,43
CDISCPILOT01,LB,CDISC004,119,HGB,Hemoglobin,HEMATOLOGY,13.1,g/dL,11.5,15.8,8.12986,8.12986,mmol/L,7.14,9.809999999999999,NORMAL,,7,WEEK 6,TREATMENT,2013-11-19T13:22,43
CDISCPILOT01,LB,CDISC004,120,K,Potassium,CHEMISTRY,4.4,mEq/L,3.4,5.4,4.4,4.399999999999999,mmol/L,3.4,5.399999999999999,NORMAL,,7,WEEK 6,TREATMENT,2013-11-19T13:22,43
CDISCPILOT01,LB,CDISC004,121,LYM,Lymphocytes,HEMATOLOGY,1.68,10^9/L,0.8,3,1.68,1.68,10^9/L,0.8,3,NORMAL,,7,WEEK 6,TREATMENT,2013-11-19T13:22,43
CDISCPILOT01,LB,CDISC004,122,MCH,Ery. Mean Corpuscular Hemoglobin,HEMATOLOGY,28,pg,26,34,1.73768,1.73768,fmol,1.6,2.1,NORMAL,,7,WEEK 6,TREATMENT,2013-11-19T13:22,43
CDISCPILOT01,LB,CDISC004,123,MCHC,Ery. Mean Corpuscular HGB Concentration,HEMATOLOGY,34,g/dL,31,38,21.1004,21.1004,mmol/L,19,24,NORMAL,,7,WEEK 6,TREATMENT,2013-11-19T13:22,43
CDISCPILOT01,LB,CDISC004,124,MCV,Ery. Mean Corpuscular Volume,HEMATOLOGY,84,fL,80,100,84,84,fL,80,100,NORMAL,,7,WEEK 6,TREATMENT,2013-11-19T13:22,43
CDISCPILOT01,LB,CDISC004,125,MONO,Monocytes,HEMATOLOGY,0.35,10^9/L,0.12,0.92,0.35,0.35,10^9/L,0.12,0.92,NORMAL,,7,WEEK 6,TREATMENT,2013-11-19T13:22,43
CDISCPILOT01,LB,CDISC004,126,SODIUM,Sodium,CHEMISTRY,142,mEq/L,135,145,142,142,mmol/L,135,145,NORMAL,,7,WEEK 6,TREATMENT,2013-11-19T13:22,43
CDISCPILOT01,LB,CDISC004,127,PHOS,Phosphate,CHEMISTRY,3.6,mg/dL,2.2,5.1,1.16244,1.16244,mmol/L,0.71,1.65,NORMAL,,7,WEEK 6,TREATMENT,2013-11-19T13:22,43
CDISCPILOT01,LB,CDISC004,128,PLAT,Platelets,HEMATOLOGY,388,10^9/L,130,394,388,388,10^9/L,130,394,NORMAL,,7,WEEK 6,TREATMENT,2013-11-19T13:22,43
CDISCPILOT01,LB,CDISC004,129,PROT,Protein,CHEMISTRY,7.1,g/dL,6,8,71,71,g/L,60,80,NORMAL,,7,WEEK 6,TREATMENT,2013-11-19T13:22,43
CDISCPILOT01,LB,CDISC004,130,RBC,Erythrocytes,HEMATOLOGY,4.60,10^12/L,3.9,5.5,4.6,4.6,10^12/L,3.9,5.5,NORMAL,,7,WEEK 6,TREATMENT,2013-11-19T13:22,43
CDISCPILOT01,LB,CDISC004,131,URATE,Urate,CHEMISTRY,4.0,mg/dL,2.5,7.5,237.92,237.92,umol/L,149,446,NORMAL,,7,WEEK 6,TREATMENT,2013-11-19T13:22,43
CDISCPILOT01,LB,CDISC004,132,WBC,Leukocytes,HEMATOLOGY,7.20,10^9/L,3.8,10.7,7.2,7.199999999999999,10^9/L,3.8,10.7,NORMAL,,7,WEEK 6,TREATMENT,2013-11-19T13:22,43
CDISCPILOT01,LB,CDISC004,133,ALB,Albumin,CHEMISTRY,4.3,g/dL,3.3,4.9,43,43,g/L,33,49,NORMAL,,8,WEEK 8,TREATMENT,2013-12-03T12:27,57
CDISCPILOT01,LB,CDISC004,134,ALP,Alkaline Phosphatase,CHEMISTRY,62,U/L,35,115,62,62,U/L,35,115,NORMAL,,8,WEEK 8,TREATMENT,2013-12-03T12:27,57
CDISCPILOT01,LB,CDISC004,135,ALT,Alanine Aminotransferase,CHEMISTRY,7,U/L,6,34,7,7,U/L,6,34,NORMAL,,8,WEEK 8,TREATMENT,2013-12-03T12:27,57
CDISCPILOT01,LB,CDISC004,136,AST,Aspartate Aminotransferase,CHEMISTRY,16,U/L,9,34,16,16,U/L,9,34,NORMAL,,8,WEEK 8,TREATMENT,2013-12-03T12:27,57
CDISCPILOT01,LB,CDISC004,137,BASO,Basophils,HEMATOLOGY,0.11,10^9/L,0,0.2,0.11,0.11,10^9/L,0,0.2,NORMAL,,8,WEEK 8,TREATMENT,2013-12-03T12:27,57
CDISCPILOT01,LB,CDISC004,138,BILI,Bilirubin,CHEMISTRY,0.3,mg/dL,0.2,1.2,5.13,5.13,umol/L,3,21,NORMAL,,8,WEEK 8,TREATMENT,2013-12-03T12:27,57
CDISCPILOT01,LB,CDISC004,139,UREAN,Urea Nitrogen,CHEMISTRY,11,mg/dL,4,24,3.927,3.927,mmol/L,1.4,8.6,NORMAL,,8,WEEK 8,TREATMENT,2013-12-03T12:27,57
CDISCPILOT01,LB,CDISC004,140,CA,Calcium,CHEMISTRY,9.2,mg/dL,8.4,10.3,2.2954,2.2954,mmol/L,2.1,2.57,NORMAL,,8,WEEK 8,TREATMENT,2013-12-03T12:27,57
CDISCPILOT01,LB,CDISC004,141,CHOL,Cholesterol,CHEMISTRY,196,mg/dL,156,300,5.06856,5.06856,mmol/L,4.029999999999999,7.76,NORMAL,,8,WEEK 8,TREATMENT,2013-12-03T12:27,57
CDISCPILOT01,LB,CDISC004,142,CK,Creatine Kinase,CHEMISTRY,132,U/L,21,169,132,132,U/L,21,169,NORMAL,,8,WEEK 8,TREATMENT,2013-12-03T12:27,57
CDISCPILOT01,LB,CDISC004,143,CL,Chloride,CHEMISTRY,107,mEq/L,94,112,107,107,mmol/L,94,112,NORMAL,,8,WEEK 8,TREATMENT,2013-12-03T12:27,57
CDISCPILOT01,LB,CDISC004,144,CREAT,Creatinine,CHEMISTRY,0.9,mg/dL,0.7,1.4,79.56,79.55999999999999,umol/L,62,124,NORMAL,,8,WEEK 8,TREATMENT,2013-12-03T12:27,57
CDISCPILOT01,LB,CDISC004,145,EOS,Eosinophils,HEMATOLOGY,0.13,10^9/L,0,0.57,0.13,0.13,10^9/L,0,0.57,NORMAL,,8,WEEK 8,TREATMENT,2013-12-03T12:27,57
CDISCPILOT01,LB,CDISC004,146,GGT,Gamma Glutamyl Transferase,CHEMISTRY,9,U/L,5,50,9,9,U/L,5,50,NORMAL,,8,WEEK 8,TREATMENT,2013-12-03T12:27,57
CDISCPILOT01,LB,CDISC004,147,GLUC,Glucose,CHEMISTRY,94,mg/dL,50,250,5.21794,5.21794,mmol/L,2.8,13.9,NORMAL,,8,WEEK 8,TREATMENT,2013-12-03T12:27,57
CDISCPILOT01,LB,CDISC004,148,HCT,Hematocrit,HEMATOLOGY,41.0,%,34,48,0.41,0.41,,0.34,0.48,NORMAL,,8,WEEK 8,TREATMENT,2013-12-03T12:27,57
CDISCPILOT01,LB,CDISC004,149,HGB,Hemoglobin,HEMATOLOGY,13.3,g/dL,11.5,15.8,8.25398,8.253979999999999,mmol/L,7.14,9.809999999999999,NORMAL,,8,WEEK 8,TREATMENT,2013-12-03T12:27,57
CDISCPILOT01,LB,CDISC004,150,K,Potassium,CHEMISTRY,4.6,mEq/L,3.4,5.4,4.6,4.6,mmol/L,3.4,5.399999999999999,NORMAL,,8,WEEK 8,TREATMENT,2013-12-03T12:27,57
CDISCPILOT01,LB,CDISC004,151,LYM,Lymphocytes,HEMATOLOGY,1.39,10^9/L,0.8,3,1.39,1.39,10^9/L,0.8,3,NORMAL,,8,WEEK 8,TREATMENT,2013-12-03T12:27,57
CDISCPILOT01,LB,CDISC004,152,MCH,Ery. Mean Corpuscular Hemoglobin,HEMATOLOGY,28,pg,26,34,1.73768,1.73768,fmol,1.6,2.1,NORMAL,,8,WEEK 8,TREATMENT,2013-12-03T12:27,57
CDISCPILOT01,LB,CDISC004,153,MCHC,Ery. Mean Corpuscular HGB Concentration,HEMATOLOGY,32,g/dL,31,38,19.8592,19.8592,mmol/L,19,24,NORMAL,,8,WEEK 8,TREATMENT,2013-12-03T12:27,57
CDISCPILOT01,LB,CDISC004,154,MCV,Ery. Mean Corpuscular Volume,HEMATOLOGY,87,fL,80,100,87,87,fL,80,100,NORMAL,,8,WEEK 8,TREATMENT,2013-12-03T12:27,57
CDISCPILOT01,LB,CDISC004,155,MONO,Monocytes,HEMATOLOGY,0.40,10^9/L,0.12,0.92,0.4,0.4,10^9/L,0.12,0.92,NORMAL,,8,WEEK 8,TREATMENT,2013-12-03T12:27,57
CDISCPILOT01,LB,CDISC004,156,SODIUM,Sodium,CHEMISTRY,141,mEq/L,135,145,141,141,mmol/L,135,145,NORMAL,,8,WEEK 8,TREATMENT,2013-12-03T12:27,57
CDISCPILOT01,LB,CDISC004,157,PHOS,Phosphate,CHEMISTRY,4.0,mg/dL,2.2,5.1,1.2916,1.2916,mmol/L,0.71,1.65,NORMAL,,8,WEEK 8,TREATMENT,2013-12-03T12:27,57
CDISCPILOT01,LB,CDISC004,158,PLAT,Platelets,HEMATOLOGY,444,10^9/L,130,394,444,444,10^9/L,130,394,HIGH,,8,WEEK 8,TREATMENT,2013-12-03T12:27,57
CDISCPILOT01,LB,CDISC004,159,PROT,Protein,CHEMISTRY,6.9,g/dL,6,8,69,69,g/L,60,80,NORMAL,,8,WEEK 8,TREATMENT,2013-12-03T12:27,57
CDISCPILOT01,LB,CDISC004,160,RBC,Erythrocytes,HEMATOLOGY,4.80,10^12/L,3.9,5.5,4.8,4.8,10^12/L,3.9,5.5,NORMAL,,8,WEEK 8,TREATMENT,2013-12-03T12:27,57
CDISCPILOT01,LB,CDISC004,161,URATE,Urate,CHEMISTRY,4.6,mg/dL,2.5,7.5,273.608,273.608,umol/L,149,446,NORMAL,,8,WEEK 8,TREATMENT,2013-12-03T12:27,57
CDISCPILOT01,LB,CDISC004,162,WBC,Leukocytes,HEMATOLOGY,7.06,10^9/L,3.8,10.7,7.06,7.06,10^9/L,3.8,10.7,NORMAL,,8,WEEK 8,TREATMENT,2013-12-03T12:27,57
CDISCPILOT01,LB,CDISC004,163,ALB,Albumin,CHEMISTRY,4.4,g/dL,3.3,4.9,44,44,g/L,33,49,NORMAL,,9,WEEK 12,TREATMENT,2013-12-31T15:07,85
CDISCPILOT01,LB,CDISC004,164,ALP,Alkaline Phosphatase,CHEMISTRY,57,U/L,35,115,57,57,U/L,35,115,NORMAL,,9,WEEK 12,TREATMENT,2013-12-31T15:07,85
CDISCPILOT01,LB,CDISC004,165,ALT,Alanine Aminotransferase,CHEMISTRY,14,U/L,6,34,14,14,U/L,6,34,NORMAL,,9,WEEK 12,TREATMENT,2013-12-31T15:07,85
CDISCPILOT01,LB,CDISC004,166,AST,Aspartate Aminotransferase,CHEMISTRY,22,U/L,9,34,22,22,U/L,9,34,NORMAL,,9,WEEK 12,TREATMENT,2013-12-31T15:07,85
CDISCPILOT01,LB,CDISC004,167,BASO,Basophils,HEMATOLOGY,0.06,10^9/L,0,0.2,0.06,0.06,10^9/L,0,0.2,NORMAL,,9,WEEK 12,TREATMENT,2013-12-31T15:07,85
CDISCPILOT01,LB,CDISC004,168,BILI,Bilirubin,CHEMISTRY,0.5,mg/dL,0.2,1.2,8.55,8.549999999999999,umol/L,3,21,NORMAL,,9,WEEK 12,TREATMENT,2013-12-31T15:07,85
CDISCPILOT01,LB,CDISC004,169,UREAN,Urea Nitrogen,CHEMISTRY,13,mg/dL,4,24,4.641,4.641,mmol/L,1.4,8.6,NORMAL,,9,WEEK 12,TREATMENT,2013-12-31T15:07,85
CDISCPILOT01,LB,CDISC004,170,CA,Calcium,CHEMISTRY,9.3,mg/dL,8.4,10.3,2.32035,2.32035,mmol/L,2.1,2.57,NORMAL,,9,WEEK 12,TREATMENT,2013-12-31T15:07,85
CDISCPILOT01,LB,CDISC004,171,CHOL,Cholesterol,CHEMISTRY,205,mg/dL,156,300,5.3013,5.301299999999999,mmol/L,4.029999999999999,7.76,NORMAL,,9,WEEK 12,TREATMENT,2013-12-31T15:07,85
CDISCPILOT01,LB,CDISC004,172,CK,Creatine Kinase,CHEMISTRY,167,U/L,21,169,167,167,U/L,21,169,NORMAL,,9,WEEK 12,TREATMENT,2013-12-31T15:07,85
CDISCPILOT01,LB,CDISC004,173,CL,Chloride,CHEMISTRY,103,mEq/L,94,112,103,103,mmol/L,94,112,NORMAL,,9,WEEK 12,TREATMENT,2013-12-31T15:07,85
CDISCPILOT01,LB,CDISC004,174,COLOR,Color,URINALYSIS,NORMAL,,,,NORMAL,,,,,NORMAL,,9,WEEK 12,TREATMENT,2013-12-31T15:07,85
CDISCPILOT01,LB,CDISC004,175,CREAT,Creatinine,CHEMISTRY,1.1,mg/dL,0.7,1.4,97.24,97.24,umol/L,62,124,NORMAL,,9,WEEK 12,TREATMENT,2013-12-31T15:07,85
CDISCPILOT01,LB,CDISC004,176,EOS,Eosinophils,HEMATOLOGY,0.15,10^9/L,0,0.57,0.15,0.15,10^9/L,0,0.57,NORMAL,,9,WEEK 12,TREATMENT,2013-12-31T15:07,85
CDISCPILOT01,LB,CDISC004,177,GGT,Gamma Glutamyl Transferase,CHEMISTRY,10,U/L,5,50,10,10,U/L,5,50,NORMAL,,9,WEEK 12,TREATMENT,2013-12-31T15:07,85
CDISCPILOT01,LB,CDISC004,178,GLUC,Glucose,CHEMISTRY,117,mg/dL,50,250,6.49467,6.494669999999999,mmol/L,2.8,13.9,NORMAL,,9,WEEK 12,TREATMENT,2013-12-31T15:07,85
CDISCPILOT01,LB,CDISC004,179,HCT,Hematocrit,HEMATOLOGY,43.0,%,34,48,0.43,0.43,,0.34,0.48,NORMAL,,9,WEEK 12,TREATMENT,2013-12-31T15:07,85
CDISCPILOT01,LB,CDISC004,180,HGB,Hemoglobin,HEMATOLOGY,14.1,g/dL,11.5,15.8,8.75046,8.750459999999999,mmol/L,7.14,9.809999999999999,NORMAL,,9,WEEK 12,TREATMENT,2013-12-31T15:07,85
CDISCPILOT01,LB,CDISC004,181,K,Potassium,CHEMISTRY,4.1,mEq/L,3.4,5.4,4.1,4.1,mmol/L,3.4,5.399999999999999,NORMAL,,9,WEEK 12,TREATMENT,2013-12-31T15:07,85
CDISCPILOT01,LB,CDISC004,182,KETONES,Ketones,URINALYSIS,0,,,,0,0,,,,NORMAL,,9,WEEK 12,TREATMENT,2013-12-31T15:07,85
CDISCPILOT01,LB,CDISC004,183,LYM,Lymphocytes,HEMATOLOGY,1.68,10^9/L,0.8,3,1.68,1.68,10^9/L,0.8,3,NORMAL,,9,WEEK 12,TREATMENT,2013-12-31T15:07,85
CDISCPILOT01,LB,CDISC004,184,MCH,Ery. Mean Corpuscular Hemoglobin,HEMATOLOGY,29,pg,26,34,1.79974,1.79974,fmol,1.6,2.1,NORMAL,,9,WEEK 12,TREATMENT,2013-12-31T15:07,85
CDISCPILOT01,LB,CDISC004,185,MCHC,Ery. Mean Corpuscular HGB Concentration,HEMATOLOGY,33,g/dL,31,38,20.4798,20.4798,mmol/L,19,24,NORMAL,,9,WEEK 12,TREATMENT,2013-12-31T15:07,85
CDISCPILOT01,LB,CDISC004,186,MCV,Ery. Mean Corpuscular Volume,HEMATOLOGY,87,fL,80,100,87,87,fL,80,100,NORMAL,,9,WEEK 12,TREATMENT,2013-12-31T15:07,85
CDISCPILOT01,LB,CDISC004,187,MONO,Monocytes,HEMATOLOGY,0.44,10^9/L,0.12,0.92,0.44,0.44,10^9/L,0.12,0.92,NORMAL,,9,WEEK 12,TREATMENT,2013-12-31T15:07,85
CDISCPILOT01,LB,CDISC004,188,SODIUM,Sodium,CHEMISTRY,140,mEq/L,135,145,140,140,mmol/L,135,145,NORMAL,,9,WEEK 12,TREATMENT,2013-12-31T15:07,85
CDISCPILOT01,LB,CDISC004,189,PH,pH,URINALYSIS,5,,5,8,5,5,,5,8,NORMAL,,9,WEEK 12,TREATMENT,2013-12-31T15:07,85
CDISCPILOT01,LB,CDISC004,190,PHOS,Phosphate,CHEMISTRY,4.1,mg/dL,2.2,5.1,1.32389,1.32389,mmol/L,0.71,1.65,NORMAL,,9,WEEK 12,TREATMENT,2013-12-31T15:07,85
CDISCPILOT01,LB,CDISC004,191,PLAT,Platelets,HEMATOLOGY,406,10^9/L,130,394,406,406,10^9/L,130,394,HIGH,,9,WEEK 12,TREATMENT,2013-12-31T15:07,85
CDISCPILOT01,LB,CDISC004,192,PROT,Protein,CHEMISTRY,7.7,g/dL,6,8,77,77,g/L,60,80,NORMAL,,9,WEEK 12,TREATMENT,2013-12-31T15:07,85
CDISCPILOT01,LB,CDISC004,193,RBC,Erythrocytes,HEMATOLOGY,4.90,10^12/L,3.9,5.5,4.9,4.899999999999999,10^12/L,3.9,5.5,NORMAL,,9,WEEK 12,TREATMENT,2013-12-31T15:07,85
CDISCPILOT01,LB,CDISC004,194,SPGRAV,Specific Gravity,URINALYSIS,1.007,,1.006,1.03,1.007,1.007,,1.006,1.03,NORMAL,,9,WEEK 12,TREATMENT,2013-12-31T15:07,85
CDISCPILOT01,LB,CDISC004,195,URATE,Urate,CHEMISTRY,4.4,mg/dL,2.5,7.5,261.712,261.712,umol/L,149,446,NORMAL,,9,WEEK 12,TREATMENT,2013-12-31T15:07,85
CDISCPILOT01,LB,CDISC004,196,UROBIL,Urobilinogen,URINALYSIS,0,,,,0,0,,,,NORMAL,,9,WEEK 12,TREATMENT,2013-12-31T15:07,85
CDISCPILOT01,LB,CDISC004,197,WBC,Leukocytes,HEMATOLOGY,7.94,10^9/L,3.8,10.7,7.94,7.94,10^9/L,3.8,10.7,NORMAL,,9,WEEK 12,TREATMENT,2013-12-31T15:07,85
CDISCPILOT01,LB,CDISC004,198,ALB,Albumin,CHEMISTRY,4.5,g/dL,3.3,4.9,45,45,g/L,33,49,NORMAL,,10,WEEK 16,TREATMENT,2014-01-27T11:49,112
CDISCPILOT01,LB,CDISC004,199,ALP,Alkaline Phosphatase,CHEMISTRY,59,U/L,35,115,59,59,U/L,35,115,NORMAL,,10,WEEK 16,TREATMENT,2014-01-27T11:49,112
CDISCPILOT01,LB,CDISC004,200,ALT,Alanine Aminotransferase,CHEMISTRY,13,U/L,6,34,13,13,U/L,6,34,NORMAL,,10,WEEK 16,TREATMENT,2014-01-27T11:49,112
CDISCPILOT01,LB,CDISC004,201,AST,Aspartate Aminotransferase,CHEMISTRY,24,U/L,9,34,24,24,U/L,9,34,NORMAL,,10,WEEK 16,TREATMENT,2014-01-27T11:49,112
CDISCPILOT01,LB,CDISC004,202,BASO,Basophils,HEMATOLOGY,0.04,10^9/L,0,0.2,0.04,0.03999999999999999,10^9/L,0,0.2,NORMAL,,10,WEEK 16,TREATMENT,2014-01-27T11:49,112
CDISCPILOT01,LB,CDISC004,203,BILI,Bilirubin,CHEMISTRY,0.5,mg/dL,0.2,1.2,8.55,8.549999999999999,umol/L,3,21,NORMAL,,10,WEEK 16,TREATMENT,2014-01-27T11:49,112
CDISCPILOT01,LB,CDISC004,204,UREAN,Urea Nitrogen,CHEMISTRY,14,mg/dL,4,24,4.998,4.997999999999999,mmol/L,1.4,8.6,NORMAL,,10,WEEK 16,TREATMENT,2014-01-27T11:49,112
CDISCPILOT01,LB,CDISC004,205,CA,Calcium,CHEMISTRY,9.8,mg/dL,8.4,10.3,2.4451,2.4451,mmol/L,2.1,2.57,NORMAL,,10,WEEK 16,TREATMENT,2014-01-27T11:49,112
CDISCPILOT01,LB,CDISC004,206,CHOL,Cholesterol,CHEMISTRY,211,mg/dL,156,300,5.45646,5.45646,mmol/L,4.029999999999999,7.76,NORMAL,,10,WEEK 16,TREATMENT,2014-01-27T11:49,112
CDISCPILOT01,LB,CDISC004,207,CK,Creatine Kinase,CHEMISTRY,176,U/L,21,169,176,176,U/L,21,169,HIGH,,10,WEEK 16,TREATMENT,2014-01-27T11:49,112
CDISCPILOT01,LB,CDISC004,208,CL,Chloride,CHEMISTRY,108,mEq/L,94,112,108,108,mmol/L,94,112,NORMAL,,10,WEEK 16,TREATMENT,2014-01-27T11:49,112
CDISCPILOT01,LB,CDISC004,209,CREAT,Creatinine,CHEMISTRY,1.0,mg/dL,0.7,1.4,88.4,88.39999999999998,umol/L,62,124,NORMAL,,10,WEEK 16,TREATMENT,2014-01-27T11:49,112
CDISCPILOT01,LB,CDISC004,210,EOS,Eosinophils,HEMATOLOGY,0.05,10^9/L,0,0.57,0.05,0.05,10^9/L,0,0.57,NORMAL,,10,WEEK 16,TREATMENT,2014-01-27T11:49,112
CDISCPILOT01,LB,CDISC004,211,GGT,Gamma Glutamyl Transferase,CHEMISTRY,9,U/L,5,50,9,9,U/L,5,50,NORMAL,,10,WEEK 16,TREATMENT,2014-01-27T11:49,112
CDISCPILOT01,LB,CDISC004,212,GLUC,Glucose,CHEMISTRY,88,mg/dL,50,250,4.88488,4.88488,mmol/L,2.8,13.9,NORMAL,,10,WEEK 16,TREATMENT,2014-01-27T11:49,112
CDISCPILOT01,LB,CDISC004,213,HCT,Hematocrit,HEMATOLOGY,43.0,%,34,48,0.43,0.43,,0.34,0.48,NORMAL,,10,WEEK 16,TREATMENT,2014-01-27T11:49,112
CDISCPILOT01,LB,CDISC004,214,HGB,Hemoglobin,HEMATOLOGY,13.8,g/dL,11.5,15.8,8.56428,8.564279999999998,mmol/L,7.14,9.809999999999999,NORMAL,,10,WEEK 16,TREATMENT,2014-01-27T11:49,112
CDISCPILOT01,LB,CDISC004,215,K,Potassium,CHEMISTRY,4.4,mEq/L,3.4,5.4,4.4,4.399999999999999,mmol/L,3.4,5.399999999999999,NORMAL,,10,WEEK 16,TREATMENT,2014-01-27T11:49,112
CDISCPILOT01,LB,CDISC004,216,LYM,Lymphocytes,HEMATOLOGY,1.25,10^9/L,0.8,3,1.25,1.25,10^9/L,0.8,3,NORMAL,,10,WEEK 16,TREATMENT,2014-01-27T11:49,112
CDISCPILOT01,LB,CDISC004,217,MCH,Ery. Mean Corpuscular Hemoglobin,HEMATOLOGY,27,pg,26,34,1.67562,1.67562,fmol,1.6,2.1,NORMAL,,10,WEEK 16,TREATMENT,2014-01-27T11:49,112
CDISCPILOT01,LB,CDISC004,218,MCHC,Ery. Mean Corpuscular HGB Concentration,HEMATOLOGY,32,g/dL,31,38,19.8592,19.8592,mmol/L,19,24,NORMAL,,10,WEEK 16,TREATMENT,2014-01-27T11:49,112
CDISCPILOT01,LB,CDISC004,219,MCV,Ery. Mean Corpuscular Volume,HEMATOLOGY,84,fL,80,100,84,84,fL,80,100,NORMAL,,10,WEEK 16,TREATMENT,2014-01-27T11:49,112
CDISCPILOT01,LB,CDISC004,220,MONO,Monocytes,HEMATOLOGY,0.50,10^9/L,0.12,0.92,0.5,0.5,10^9/L,0.12,0.92,NORMAL,,10,WEEK 16,TREATMENT,2014-01-27T11:49,112
CDISCPILOT01,LB,CDISC004,221,SODIUM,Sodium,CHEMISTRY,141,mEq/L,135,145,141,141,mmol/L,135,145,NORMAL,,10,WEEK 16,TREATMENT,2014-01-27T11:49,112
CDISCPILOT01,LB,CDISC004,222,PHOS,Phosphate,CHEMISTRY,3.9,mg/dL,2.2,5.1,1.25931,1.25931,mmol/L,0.71,1.65,NORMAL,,10,WEEK 16,TREATMENT,2014-01-27T11:49,112
CDISCPILOT01,LB,CDISC004,223,PLAT,Platelets,HEMATOLOGY,362,10^9/L,130,394,362,362,10^9/L,130,394,NORMAL,,10,WEEK 16,TREATMENT,2014-01-27T11:49,112
CDISCPILOT01,LB,CDISC004,224,PROT,Protein,CHEMISTRY,7.4,g/dL,6,8,74,74,g/L,60,80,NORMAL,,10,WEEK 16,TREATMENT,2014-01-27T11:49,112
CDISCPILOT01,LB,CDISC004,225,RBC,Erythrocytes,HEMATOLOGY,5.10,10^12/L,3.9,5.5,5.1,5.1,10^12/L,3.9,5.5,NORMAL,,10,WEEK 16,TREATMENT,2014-01-27T11:49,112
CDISCPILOT01,LB,CDISC004,226,URATE,Urate,CHEMISTRY,4.7,mg/dL,2.5,7.5,279.556,279.556,umol/L,149,446,NORMAL,,10,WEEK 16,TREATMENT,2014-01-27T11:49,112
CDISCPILOT01,LB,CDISC004,227,WBC,Leukocytes,HEMATOLOGY,7.58,10^9/L,3.8,10.7,7.58,7.58,10^9/L,3.8,10.7,NORMAL,,10,WEEK 16,TREATMENT,2014-01-27T11:49,112
CDISCPILOT01,LB,CDISC004,228,ALB,Albumin,CHEMISTRY,4.3,g/dL,3.3,4.9,43,43,g/L,33,49,NORMAL,,11,WEEK 20,TREATMENT,2014-02-25T08:44,141
CDISCPILOT01,LB,CDISC004,229,ALP,Alkaline Phosphatase,CHEMISTRY,56,U/L,35,115,56,56,U/L,35,115,NORMAL,,11,WEEK 20,TREATMENT,2014-02-25T08:44,141
CDISCPILOT01,LB,CDISC004,230,ALT,Alanine Aminotransferase,CHEMISTRY,13,U/L,6,34,13,13,U/L,6,34,NORMAL,,11,WEEK 20,TREATMENT,2014-02-25T08:44,141
CDISCPILOT01,LB,CDISC004,231,AST,Aspartate Aminotransferase,CHEMISTRY,22,U/L,9,34,22,22,U/L,9,34,NORMAL,,11,WEEK 20,TREATMENT,2014-02-25T08:44,141
CDISCPILOT01,LB,CDISC004,232,BASO,Basophils,HEMATOLOGY,0.07,10^9/L,0,0.2,0.07,0.07,10^9/L,0,0.2,NORMAL,,11,WEEK 20,TREATMENT,2014-02-25T08:44,141
CDISCPILOT01,LB,CDISC004,233,BILI,Bilirubin,CHEMISTRY,0.4,mg/dL,0.2,1.2,6.84,6.84,umol/L,3,21,NORMAL,,11,WEEK 20,TREATMENT,2014-02-25T08:44,141
CDISCPILOT01,LB,CDISC004,234,UREAN,Urea Nitrogen,CHEMISTRY,11,mg/dL,4,24,3.927,3.927,mmol/L,1.4,8.6,NORMAL,,11,WEEK 20,TREATMENT,2014-02-25T08:44,141
CDISCPILOT01,LB,CDISC004,235,CA,Calcium,CHEMISTRY,9.5,mg/dL,8.4,10.3,2.37025,2.37025,mmol/L,2.1,2.57,NORMAL,,11,WEEK 20,TREATMENT,2014-02-25T08:44,141
CDISCPILOT01,LB,CDISC004,236,CHOL,Cholesterol,CHEMISTRY,208,mg/dL,156,300,5.37888,5.37888,mmol/L,4.029999999999999,7.76,NORMAL,,11,WEEK 20,TREATMENT,2014-02-25T08:44,141
CDISCPILOT01,LB,CDISC004,237,CK,Creatine Kinase,CHEMISTRY,155,U/L,21,169,155,155,U/L,21,169,NORMAL,,11,WEEK 20,TREATMENT,2014-02-25T08:44,141
CDISCPILOT01,LB,CDISC004,238,CL,Chloride,CHEMISTRY,105,mEq/L,94,112,105,105,mmol/L,94,112,NORMAL,,11,WEEK 20,TREATMENT,2014-02-25T08:44,141
CDISCPILOT01,LB,CDISC004,239,CREAT,Creatinine,CHEMISTRY,1.0,mg/dL,0.7,1.4,88.4,88.39999999999998,umol/L,62,124,NORMAL,,11,WEEK 20,TREATMENT,2014-02-25T08:44,141
CDISCPILOT01,LB,CDISC004,240,EOS,Eosinophils,HEMATOLOGY,0.12,10^9/L,0,0.57,0.12,0.12,10^9/L,0,0.57,NORMAL,,11,WEEK 20,TREATMENT,2014-02-25T08:44,141
CDISCPILOT01,LB,CDISC004,241,GGT,Gamma Glutamyl Transferase,CHEMISTRY,8,U/L,5,50,8,8,U/L,5,50,NORMAL,,11,WEEK 20,TREATMENT,2014-02-25T08:44,141
CDISCPILOT01,LB,CDISC004,242,GLUC,Glucose,CHEMISTRY,97,mg/dL,50,250,5.38447,5.384469999999999,mmol/L,2.8,13.9,NORMAL,,11,WEEK 20,TREATMENT,2014-02-25T08:44,141
CDISCPILOT01,LB,CDISC004,243,HCT,Hematocrit,HEMATOLOGY,45.0,%,34,48,0.45,0.45,,0.34,0.48,NORMAL,,11,WEEK 20,TREATMENT,2014-02-25T08:44,141
CDISCPILOT01,LB,CDISC004,244,HGB,Hemoglobin,HEMATOLOGY,14.4,g/dL,11.5,15.8,8.93664,8.936639999999999,mmol/L,7.14,9.809999999999999,NORMAL,,11,WEEK 20,TREATMENT,2014-02-25T08:44,141
CDISCPILOT01,LB,CDISC004,245,K,Potassium,CHEMISTRY,4.8,mEq/L,3.4,5.4,4.8,4.8,mmol/L,3.4,5.399999999999999,NORMAL,,11,WEEK 20,TREATMENT,2014-02-25T08:44,141
CDISCPILOT01,LB,CDISC004,246,LYM,Lymphocytes,HEMATOLOGY,1.27,10^9/L,0.8,3,1.27,1.27,10^9/L,0.8,3,NORMAL,,11,WEEK 20,TREATMENT,2014-02-25T08:44,141
CDISCPILOT01,LB,CDISC004,247,MCH,Ery. Mean Corpuscular Hemoglobin,HEMATOLOGY,28,pg,26,34,1.73768,1.73768,fmol,1.6,2.1,NORMAL,,11,WEEK 20,TREATMENT,2014-02-25T08:44,141
CDISCPILOT01,LB,CDISC004,248,MCHC,Ery. Mean Corpuscular HGB Concentration,HEMATOLOGY,32,g/dL,31,38,19.8592,19.8592,mmol/L,19,24,NORMAL,,11,WEEK 20,TREATMENT,2014-02-25T08:44,141
CDISCPILOT01,LB,CDISC004,249,MCV,Ery. Mean Corpuscular Volume,HEMATOLOGY,87,fL,80,100,87,87,fL,80,100,NORMAL,,11,WEEK 20,TREATMENT,2014-02-25T08:44,141
CDISCPILOT01,LB,CDISC004,250,MONO,Monocytes,HEMATOLOGY,0.49,10^9/L,0.12,0.92,0.49,0.49,10^9/L,0.12,0.92,NORMAL,,11,WEEK 20,TREATMENT,2014-02-25T08:44,141
CDISCPILOT01,LB,CDISC004,251,SODIUM,Sodium,CHEMISTRY,144,mEq/L,135,145,144,144,mmol/L,135,145,NORMAL,,11,WEEK 20,TREATMENT,2014-02-25T08:44,141
CDISCPILOT01,LB,CDISC004,252,PHOS,Phosphate,CHEMISTRY,3.8,mg/dL,2.2,5.1,1.22702,1.22702,mmol/L,0.71,1.65,NORMAL,,11,WEEK 20,TREATMENT,2014-02-25T08:44,141
CDISCPILOT01,LB,CDISC004,253,PLAT,Platelets,HEMATOLOGY,399,10^9/L,130,394,399,399,10^9/L,130,394,HIGH,,11,WEEK 20,TREATMENT,2014-02-25T08:44,141
CDISCPILOT01,LB,CDISC004,254,PROT,Protein,CHEMISTRY,7.3,g/dL,6,8,73,73,g/L,60,80,NORMAL,,11,WEEK 20,TREATMENT,2014-02-25T08:44,141
CDISCPILOT01,LB,CDISC004,255,RBC,Erythrocytes,HEMATOLOGY,5.20,10^12/L,3.9,5.5,5.2,5.199999999999999,10^12/L,3.9,5.5,NORMAL,,11,WEEK 20,TREATMENT,2014-02-25T08:44,141
CDISCPILOT01,LB,CDISC004,256,URATE,Urate,CHEMISTRY,4.7,mg/dL,2.5,7.5,279.556,279.556,umol/L,149,446,NORMAL,,11,WEEK 20,TREATMENT,2014-02-25T08:44,141
CDISCPILOT01,LB,CDISC004,257,WBC,Leukocytes,HEMATOLOGY,6.55,10^9/L,3.8,10.7,6.55,6.55,10^9/L,3.8,10.7,NORMAL,,11,WEEK 20,TREATMENT,2014-02-25T08:44,141
CDISCPILOT01,LB,CDISC004,258,ALB,Albumin,CHEMISTRY,4.5,g/dL,3.3,4.9,45,45,g/L,33,49,NORMAL,,12,WEEK 24,TREATMENT,2014-03-18T14:12,162
CDISCPILOT01,LB,CDISC004,259,ALP,Alkaline Phosphatase,CHEMISTRY,58,U/L,35,115,58,58,U/L,35,115,NORMAL,,12,WEEK 24,TREATMENT,2014-03-18T14:12,162
CDISCPILOT01,LB,CDISC004,260,ALT,Alanine Aminotransferase,CHEMISTRY,25,U/L,6,34,25,25,U/L,6,34,NORMAL,,12,WEEK 24,TREATMENT,2014-03-18T14:12,162
CDISCPILOT01,LB,CDISC004,261,AST,Aspartate Aminotransferase,CHEMISTRY,46,U/L,9,34,46,46,U/L,9,34,HIGH,,12,WEEK 24,TREATMENT,2014-03-18T14:12,162
CDISCPILOT01,LB,CDISC004,262,BASO,Basophils,HEMATOLOGY,0.08,10^9/L,0,0.2,0.08,0.08,10^9/L,0,0.2,NORMAL,,12,WEEK 24,TREATMENT,2014-03-18T14:12,162
CDISCPILOT01,LB,CDISC004,263,BILI,Bilirubin,CHEMISTRY,0.5,mg/dL,0.2,1.2,8.55,8.549999999999999,umol/L,3,21,NORMAL,,12,WEEK 24,TREATMENT,2014-03-18T14:12,162
CDISCPILOT01,LB,CDISC004,264,UREAN,Urea Nitrogen,CHEMISTRY,11,mg/dL,4,24,3.927,3.927,mmol/L,1.4,8.6,NORMAL,,12,WEEK 24,TREATMENT,2014-03-18T14:12,162
CDISCPILOT01,LB,CDISC004,265,CA,Calcium,CHEMISTRY,9.4,mg/dL,8.4,10.3,2.3453,2.3453,mmol/L,2.1,2.57,NORMAL,,12,WEEK 24,TREATMENT,2014-03-18T14:12,162
CDISCPILOT01,LB,CDISC004,266,CHOL,Cholesterol,CHEMISTRY,184,mg/dL,156,300,4.75824,4.75824,mmol/L,4.029999999999999,7.76,NORMAL,,12,WEEK 24,TREATMENT,2014-03-18T14:12,162
CDISCPILOT01,LB,CDISC004,267,CK,Creatine Kinase,CHEMISTRY,1556,U/L,21,169,1556,1556,U/L,21,169,HIGH,,12,WEEK 24,TREATMENT,2014-03-18T14:12,162
CDISCPILOT01,LB,CDISC004,268,CL,Chloride,CHEMISTRY,103,mEq/L,94,112,103,103,mmol/L,94,112,NORMAL,,12,WEEK 24,TREATMENT,2014-03-18T14:12,162
CDISCPILOT01,LB,CDISC004,269,COLOR,Color,URINALYSIS,NORMAL,,,,NORMAL,,,,,NORMAL,,12,WEEK 24,TREATMENT,2014-03-18T14:12,162
CDISCPILOT01,LB,CDISC004,270,CREAT,Creatinine,CHEMISTRY,1.0,mg/dL,0.7,1.4,88.4,88.39999999999998,umol/L,62,124,NORMAL,,12,WEEK 24,TREATMENT,2014-03-18T14:12,162
CDISCPILOT01,LB,CDISC004,271,EOS,Eosinophils,HEMATOLOGY,0.25,10^9/L,0,0.57,0.25,0.25,10^9/L,0,0.57,NORMAL,,12,WEEK 24,TREATMENT,2014-03-18T14:12,162
CDISCPILOT01,LB,CDISC004,272,GGT,Gamma Glutamyl Transferase,CHEMISTRY,9,U/L,5,50,9,9,U/L,5,50,NORMAL,,12,WEEK 24,TREATMENT,2014-03-18T14:12,162
CDISCPILOT01,LB,CDISC004,273,GLUC,Glucose,CHEMISTRY,87,mg/dL,50,250,4.82937,4.82937,mmol/L,2.8,13.9,NORMAL,,12,WEEK 24,TREATMENT,2014-03-18T14:12,162
CDISCPILOT01,LB,CDISC004,274,HCT,Hematocrit,HEMATOLOGY,41.0,%,34,48,0.41,0.41,,0.34,0.48,NORMAL,,12,WEEK 24,TREATMENT,2014-03-18T14:12,162
CDISCPILOT01,LB,CDISC004,275,HGB,Hemoglobin,HEMATOLOGY,13.8,g/dL,11.5,15.8,8.56428,8.564279999999998,mmol/L,7.14,9.809999999999999,NORMAL,,12,WEEK 24,TREATMENT,2014-03-18T14:12,162
CDISCPILOT01,LB,CDISC004,276,K,Potassium,CHEMISTRY,4.9,mEq/L,3.4,5.4,4.9,4.899999999999999,mmol/L,3.4,5.399999999999999,NORMAL,,12,WEEK 24,TREATMENT,2014-03-18T14:12,162
CDISCPILOT01,LB,CDISC004,277,KETONES,Ketones,URINALYSIS,0,,,,0,0,,,,NORMAL,,12,WEEK 24,TREATMENT,2014-03-18T14:12,162
CDISCPILOT01,LB,CDISC004,278,LYM,Lymphocytes,HEMATOLOGY,1.53,10^9/L,0.8,3,1.53,1.53,10^9/L,0.8,3,NORMAL,,12,WEEK 24,TREATMENT,2014-03-18T14:12,162
CDISCPILOT01,LB,CDISC004,279,MCH,Ery. Mean Corpuscular Hemoglobin,HEMATOLOGY,29,pg,26,34,1.79974,1.79974,fmol,1.6,2.1,NORMAL,,12,WEEK 24,TREATMENT,2014-03-18T14:12,162
CDISCPILOT01,LB,CDISC004,280,MCHC,Ery. Mean Corpuscular HGB Concentration,HEMATOLOGY,34,g/dL,31,38,21.1004,21.1004,mmol/L,19,24,NORMAL,,12,WEEK 24,TREATMENT,2014-03-18T14:12,162
CDISCPILOT01,LB,CDISC004,281,MCV,Ery. Mean Corpuscular Volume,HEMATOLOGY,85,fL,80,100,85,85,fL,80,100,NORMAL,,12,WEEK 24,TREATMENT,2014-03-18T14:12,162
CDISCPILOT01,LB,CDISC004,282,MONO,Monocytes,HEMATOLOGY,0.47,10^9/L,0.12,0.92,0.47,0.47,10^9/L,0.12,0.92,NORMAL,,12,WEEK 24,TREATMENT,2014-03-18T14:12,162
CDISCPILOT01,LB,CDISC004,283,SODIUM,Sodium,CHEMISTRY,142,mEq/L,135,145,142,142,mmol/L,135,145,NORMAL,,12,WEEK 24,TREATMENT,2014-03-18T14:12,162
CDISCPILOT01,LB,CDISC004,284,PH,pH,URINALYSIS,5,,5,8,5,5,,5,8,NORMAL,,12,WEEK 24,TREATMENT,2014-03-18T14:12,162
CDISCPILOT01,LB,CDISC004,285,PHOS,Phosphate,CHEMISTRY,3.9,mg/dL,2.2,5.1,1.25931,1.25931,mmol/L,0.71,1.65,NORMAL,,12,WEEK 24,TREATMENT,2014-03-18T14:12,162
CDISCPILOT01,LB,CDISC004,286,PLAT,Platelets,HEMATOLOGY,361,10^9/L,130,394,361,361,10^9/L,130,394,NORMAL,,12,WEEK 24,TREATMENT,2014-03-18T14:12,162
CDISCPILOT01,LB,CDISC004,287,PROT,Protein,CHEMISTRY,7.4,g/dL,6,8,74,74,g/L,60,80,NORMAL,,12,WEEK 24,TREATMENT,2014-03-18T14:12,162
CDISCPILOT01,LB,CDISC004,288,RBC,Erythrocytes,HEMATOLOGY,4.80,10^12/L,3.9,5.5,4.8,4.8,10^12/L,3.9,5.5,NORMAL,,12,WEEK 24,TREATMENT,2014-03-18T14:12,162
CDISCPILOT01,LB,CDISC004,289,SPGRAV,Specific Gravity,URINALYSIS,1.007,,1.006,1.03,1.007,1.007,,1.006,1.03,NORMAL,,12,WEEK 24,TREATMENT,2014-03-18T14:12,162
CDISCPILOT01,LB,CDISC004,290,URATE,Urate,CHEMISTRY,4.7,mg/dL,2.5,7.5,279.556,279.556,umol/L,149,446,NORMAL,,12,WEEK 24,TREATMENT,2014-03-18T14:12,162
CDISCPILOT01,LB,CDISC004,291,UROBIL,Urobilinogen,URINALYSIS,0,,,,0,0,,,,NORMAL,,12,WEEK 24,TREATMENT,2014-03-18T14:12,162
CDISCPILOT01,LB,CDISC004,292,WBC,Leukocytes,HEMATOLOGY,7.66,10^9/L,3.8,10.7,7.66,7.66,10^9/L,3.8,10.7,NORMAL,,12,WEEK 24,TREATMENT,2014-03-18T14:12,162
CDISCPILOT01,LB,CDISC005,1,ALB,Albumin,CHEMISTRY,3.9,g/dL,3.5,4.6,39,39,g/L,35,46,NORMAL,Y,1,SCREENING 1,SCREENING,2013-01-22T11:43,-13
CDISCPILOT01,LB,CDISC005,2,ALP,Alkaline Phosphatase,CHEMISTRY,66,U/L,35,115,66,66,U/L,35,115,NORMAL,Y,1,SCREENING 1,SCREENING,2013-01-22T11:43,-13
CDISCPILOT01,LB,CDISC005,3,ALT,Alanine Aminotransferase,CHEMISTRY,17,U/L,6,32,17,17,U/L,6,32,NORMAL,Y,1,SCREENING 1,SCREENING,2013-01-22T11:43,-13
CDISCPILOT01,LB,CDISC005,4,AST,Aspartate Aminotransferase,CHEMISTRY,20,U/L,9,34,20,20,U/L,9,34,NORMAL,Y,1,SCREENING 1,SCREENING,2013-01-22T11:43,-13
CDISCPILOT01,LB,CDISC005,5,BASO,Basophils,HEMATOLOGY,0.04,10^9/L,0,0.2,0.04,0.03999999999999999,10^9/L,0,0.2,NORMAL,Y,1,SCREENING 1,SCREENING,2013-01-22T11:43,-13
CDISCPILOT01,LB,CDISC005,6,BILI,Bilirubin,CHEMISTRY,0.5,mg/dL,0.2,1.2,8.55,8.549999999999999,umol/L,3,21,NORMAL,Y,1,SCREENING 1,SCREENING,2013-01-22T11:43,-13
CDISCPILOT01,LB,CDISC005,7,UREAN,Urea Nitrogen,CHEMISTRY,8,mg/dL,4,24,2.856,2.856,mmol/L,1.4,8.6,NORMAL,Y,1,SCREENING 1,SCREENING,2013-01-22T11:43,-13
CDISCPILOT01,LB,CDISC005,8,CA,Calcium,CHEMISTRY,8.9,mg/dL,8.4,10.3,2.22055,2.22055,mmol/L,2.1,2.57,NORMAL,Y,1,SCREENING 1,SCREENING,2013-01-22T11:43,-13
CDISCPILOT01,LB,CDISC005,9,CHOL,Cholesterol,CHEMISTRY,213,mg/dL,156,300,5.50818,5.508179999999999,mmol/L,4.029999999999999,7.76,NORMAL,Y,1,SCREENING 1,SCREENING,2013-01-22T11:43,-13
CDISCPILOT01,LB,CDISC005,10,CK,Creatine Kinase,CHEMISTRY,96,U/L,21,169,96,96,U/L,21,169,NORMAL,Y,1,SCREENING 1,SCREENING,2013-01-22T11:43,-13
CDISCPILOT01,LB,CDISC005,11,CL,Chloride,CHEMISTRY,107,mEq/L,94,112,107,107,mmol/L,94,112,NORMAL,Y,1,SCREENING 1,SCREENING,2013-01-22T11:43,-13
CDISCPILOT01,LB,CDISC005,12,COLOR,Color,URINALYSIS,NORMAL,,,,NORMAL,,,,,NORMAL,Y,1,SCREENING 1,SCREENING,2013-01-22T11:43,-13
CDISCPILOT01,LB,CDISC005,13,CREAT,Creatinine,CHEMISTRY,0.9,mg/dL,0.7,1.4,79.56,79.55999999999999,umol/L,62,124,NORMAL,Y,1,SCREENING 1,SCREENING,2013-01-22T11:43,-13
CDISCPILOT01,LB,CDISC005,14,EOS,Eosinophils,HEMATOLOGY,0.07,10^9/L,0,0.57,0.07,0.07,10^9/L,0,0.57,NORMAL,Y,1,SCREENING 1,SCREENING,2013-01-22T11:43,-13
CDISCPILOT01,LB,CDISC005,15,GGT,Gamma Glutamyl Transferase,CHEMISTRY,11,U/L,5,50,11,11,U/L,5,50,NORMAL,Y,1,SCREENING 1,SCREENING,2013-01-22T11:43,-13
CDISCPILOT01,LB,CDISC005,16,GLUC,Glucose,CHEMISTRY,95,mg/dL,50,250,5.27345,5.27345,mmol/L,2.8,13.9,NORMAL,Y,1,SCREENING 1,SCREENING,2013-01-22T11:43,-13
CDISCPILOT01,LB,CDISC005,17,HCT,Hematocrit,HEMATOLOGY,40.0,%,34,48,0.4,0.4,,0.34,0.48,NORMAL,Y,1,SCREENING 1,SCREENING,2013-01-22T11:43,-13
CDISCPILOT01,LB,CDISC005,18,HGB,Hemoglobin,HEMATOLOGY,13.7,g/dL,11.5,15.8,8.50222,8.50222,mmol/L,7.14,9.809999999999999,NORMAL,Y,1,SCREENING 1,SCREENING,2013-01-22T11:43,-13
CDISCPILOT01,LB,CDISC005,19,K,Potassium,CHEMISTRY,4.3,mEq/L,3.4,5.4,4.3,4.3,mmol/L,3.4,5.399999999999999,NORMAL,Y,1,SCREENING 1,SCREENING,2013-01-22T11:43,-13
CDISCPILOT01,LB,CDISC005,20,KETONES,Ketones,URINALYSIS,0,,,,0,0,,,,NORMAL,Y,1,SCREENING 1,SCREENING,2013-01-22T11:43,-13
CDISCPILOT01,LB,CDISC005,21,LYM,Lymphocytes,HEMATOLOGY,1.77,10^9/L,0.8,3,1.77,1.77,10^9/L,0.8,3,NORMAL,Y,1,SCREENING 1,SCREENING,2013-01-22T11:43,-13
CDISCPILOT01,LB,CDISC005,22,MCH,Ery. Mean Corpuscular Hemoglobin,HEMATOLOGY,32,pg,26,34,1.98592,1.98592,fmol,1.6,2.1,NORMAL,Y,1,SCREENING 1,SCREENING,2013-01-22T11:43,-13
CDISCPILOT01,LB,CDISC005,23,MCHC,Ery. Mean Corpuscular HGB Concentration,HEMATOLOGY,34,g/dL,31,38,21.1004,21.1004,mmol/L,19,24,NORMAL,Y,1,SCREENING 1,SCREENING,2013-01-22T11:43,-13
CDISCPILOT01,LB,CDISC005,24,MCV,Ery. Mean Corpuscular Volume,HEMATOLOGY,94,fL,80,100,94,94,fL,80,100,NORMAL,Y,1,SCREENING 1,SCREENING,2013-01-22T11:43,-13
CDISCPILOT01,LB,CDISC005,25,MONO,Monocytes,HEMATOLOGY,0.26,10^9/L,0.12,0.92,0.26,0.26,10^9/L,0.12,0.92,NORMAL,Y,1,SCREENING 1,SCREENING,2013-01-22T11:43,-13
CDISCPILOT01,LB,CDISC005,26,SODIUM,Sodium,CHEMISTRY,143,mEq/L,135,145,143,143,mmol/L,135,145,NORMAL,Y,1,SCREENING 1,SCREENING,2013-01-22T11:43,-13
CDISCPILOT01,LB,CDISC005,27,PH,pH,URINALYSIS,6,,5,8,6,6,,5,8,NORMAL,Y,1,SCREENING 1,SCREENING,2013-01-22T11:43,-13
CDISCPILOT01,LB,CDISC005,28,PHOS,Phosphate,CHEMISTRY,4.0,mg/dL,2.2,5.1,1.2916,1.2916,mmol/L,0.71,1.65,NORMAL,Y,1,SCREENING 1,SCREENING,2013-01-22T11:43,-13
CDISCPILOT01,LB,CDISC005,29,PLAT,Platelets,HEMATOLOGY,341,10^9/L,130,394,341,341,10^9/L,130,394,NORMAL,Y,1,SCREENING 1,SCREENING,2013-01-22T11:43,-13
CDISCPILOT01,LB,CDISC005,30,PROT,Protein,CHEMISTRY,6.8,g/dL,6,8,68,68,g/L,60,80,NORMAL,Y,1,SCREENING 1,SCREENING,2013-01-22T11:43,-13
CDISCPILOT01,LB,CDISC005,31,RBC,Erythrocytes,HEMATOLOGY,4.30,10^12/L,3.9,5.5,4.3,4.3,10^12/L,3.9,5.5,NORMAL,Y,1,SCREENING 1,SCREENING,2013-01-22T11:43,-13
CDISCPILOT01,LB,CDISC005,32,SPGRAV,Specific Gravity,URINALYSIS,1.011,,1.006,1.03,1.011,1.011,,1.006,1.03,NORMAL,Y,1,SCREENING 1,SCREENING,2013-01-22T11:43,-13
CDISCPILOT01,LB,CDISC005,33,TSH,Thyrotropin,OTHER,3.66,mIU/L,.32,5,3.66,3.66,mU/L,0.32,5,NORMAL,Y,1,SCREENING 1,SCREENING,2013-01-22T11:43,-13
CDISCPILOT01,LB,CDISC005,34,URATE,Urate,CHEMISTRY,3.3,mg/dL,2.5,7.5,196.284,196.284,umol/L,149,446,NORMAL,Y,1,SCREENING 1,SCREENING,2013-01-22T11:43,-13
CDISCPILOT01,LB,CDISC005,35,UROBIL,Urobilinogen,URINALYSIS,0,,,,0,0,,,,NORMAL,Y,1,SCREENING 1,SCREENING,2013-01-22T11:43,-13
CDISCPILOT01,LB,CDISC005,36,VITB12,Vitamin B12,OTHER,555,ng/L,200,900,409.479,409.479,pmol/L,148,664,NORMAL,Y,1,SCREENING 1,SCREENING,2013-01-22T11:43,-13
CDISCPILOT01,LB,CDISC005,37,WBC,Leukocytes,HEMATOLOGY,5.08,10^9/L,3.8,10.7,5.08,5.08,10^9/L,3.8,10.7,NORMAL,Y,1,SCREENING 1,SCREENING,2013-01-22T11:43,-13
CDISCPILOT01,LB,CDISC005,38,ALB,Albumin,CHEMISTRY,3.8,g/dL,3.5,4.6,38,38,g/L,35,46,NORMAL,,4,WEEK 2,TREATMENT,2013-02-19T09:40,16
CDISCPILOT01,LB,CDISC005,39,ALP,Alkaline Phosphatase,CHEMISTRY,66,U/L,35,115,66,66,U/L,35,115,NORMAL,,4,WEEK 2,TREATMENT,2013-02-19T09:40,16
CDISCPILOT01,LB,CDISC005,40,ALT,Alanine Aminotransferase,CHEMISTRY,17,U/L,6,32,17,17,U/L,6,32,NORMAL,,4,WEEK 2,TREATMENT,2013-02-19T09:40,16
CDISCPILOT01,LB,CDISC005,41,AST,Aspartate Aminotransferase,CHEMISTRY,20,U/L,9,34,20,20,U/L,9,34,NORMAL,,4,WEEK 2,TREATMENT,2013-02-19T09:40,16
CDISCPILOT01,LB,CDISC005,42,BASO,Basophils,HEMATOLOGY,0.03,10^9/L,0,0.2,0.03,0.03,10^9/L,0,0.2,NORMAL,,4,WEEK 2,TREATMENT,2013-02-19T09:40,16
CDISCPILOT01,LB,CDISC005,43,BILI,Bilirubin,CHEMISTRY,0.5,mg/dL,0.2,1.2,8.55,8.549999999999999,umol/L,3,21,NORMAL,,4,WEEK 2,TREATMENT,2013-02-19T09:40,16
CDISCPILOT01,LB,CDISC005,44,UREAN,Urea Nitrogen,CHEMISTRY,12,mg/dL,4,24,4.284,4.284,mmol/L,1.4,8.6,NORMAL,,4,WEEK 2,TREATMENT,2013-02-19T09:40,16
CDISCPILOT01,LB,CDISC005,45,CA,Calcium,CHEMISTRY,9.4,mg/dL,8.4,10.3,2.3453,2.3453,mmol/L,2.1,2.57,NORMAL,,4,WEEK 2,TREATMENT,2013-02-19T09:40,16
CDISCPILOT01,LB,CDISC005,46,CHOL,Cholesterol,CHEMISTRY,203,mg/dL,156,300,5.24958,5.24958,mmol/L,4.029999999999999,7.76,NORMAL,,4,WEEK 2,TREATMENT,2013-02-19T09:40,16
CDISCPILOT01,LB,CDISC005,47,CK,Creatine Kinase,CHEMISTRY,75,U/L,21,169,75,75,U/L,21,169,NORMAL,,4,WEEK 2,TREATMENT,2013-02-19T09:40,16
CDISCPILOT01,LB,CDISC005,48,CL,Chloride,CHEMISTRY,106,mEq/L,94,112,106,106,mmol/L,94,112,NORMAL,,4,WEEK 2,TREATMENT,2013-02-19T09:40,16
CDISCPILOT01,LB,CDISC005,49,COLOR,Color,URINALYSIS,NORMAL,,,,NORMAL,,,,,NORMAL,,4,WEEK 2,TREATMENT,2013-02-19T09:40,16
CDISCPILOT01,LB,CDISC005,50,CREAT,Creatinine,CHEMISTRY,0.9,mg/dL,0.7,1.4,79.56,79.55999999999999,umol/L,62,124,NORMAL,,4,WEEK 2,TREATMENT,2013-02-19T09:40,16
CDISCPILOT01,LB,CDISC005,51,EOS,Eosinophils,HEMATOLOGY,0.10,10^9/L,0,0.57,0.1,0.1,10^9/L,0,0.57,NORMAL,,4,WEEK 2,TREATMENT,2013-02-19T09:40,16
CDISCPILOT01,LB,CDISC005,52,GGT,Gamma Glutamyl Transferase,CHEMISTRY,14,U/L,5,50,14,14,U/L,5,50,NORMAL,,4,WEEK 2,TREATMENT,2013-02-19T09:40,16
CDISCPILOT01,LB,CDISC005,53,GLUC,Glucose,CHEMISTRY,87,mg/dL,50,250,4.82937,4.82937,mmol/L,2.8,13.9,NORMAL,,4,WEEK 2,TREATMENT,2013-02-19T09:40,16
CDISCPILOT01,LB,CDISC005,54,HCT,Hematocrit,HEMATOLOGY,40.0,%,34,48,0.4,0.4,,0.34,0.48,NORMAL,,4,WEEK 2,TREATMENT,2013-02-19T09:40,16
CDISCPILOT01,LB,CDISC005,55,HGB,Hemoglobin,HEMATOLOGY,12.9,g/dL,11.5,15.8,8.00574,8.00574,mmol/L,7.14,9.809999999999999,NORMAL,,4,WEEK 2,TREATMENT,2013-02-19T09:40,16
CDISCPILOT01,LB,CDISC005,56,K,Potassium,CHEMISTRY,4.8,mEq/L,3.4,5.4,4.8,4.8,mmol/L,3.4,5.399999999999999,NORMAL,,4,WEEK 2,TREATMENT,2013-02-19T09:40,16
CDISCPILOT01,LB,CDISC005,57,KETONES,Ketones,URINALYSIS,0,,,,0,0,,,,NORMAL,,4,WEEK 2,TREATMENT,2013-02-19T09:40,16
CDISCPILOT01,LB,CDISC005,58,LYM,Lymphocytes,HEMATOLOGY,1.28,10^9/L,0.8,3,1.28,1.28,10^9/L,0.8,3,NORMAL,,4,WEEK 2,TREATMENT,2013-02-19T09:40,16
CDISCPILOT01,LB,CDISC005,59,MCH,Ery. Mean Corpuscular Hemoglobin,HEMATOLOGY,30,pg,26,34,1.8618,1.8618,fmol,1.6,2.1,NORMAL,,4,WEEK 2,TREATMENT,2013-02-19T09:40,16
CDISCPILOT01,LB,CDISC005,60,MCHC,Ery. Mean Corpuscular HGB Concentration,HEMATOLOGY,32,g/dL,31,38,19.8592,19.8592,mmol/L,19,24,NORMAL,,4,WEEK 2,TREATMENT,2013-02-19T09:40,16
CDISCPILOT01,LB,CDISC005,61,MCV,Ery. Mean Corpuscular Volume,HEMATOLOGY,92,fL,80,100,92,92,fL,80,100,NORMAL,,4,WEEK 2,TREATMENT,2013-02-19T09:40,16
CDISCPILOT01,LB,CDISC005,62,MONO,Monocytes,HEMATOLOGY,0.31,10^9/L,0.12,0.92,0.31,0.31,10^9/L,0.12,0.92,NORMAL,,4,WEEK 2,TREATMENT,2013-02-19T09:40,16
CDISCPILOT01,LB,CDISC005,63,SODIUM,Sodium,CHEMISTRY,139,mEq/L,135,145,139,139,mmol/L,135,145,NORMAL,,4,WEEK 2,TREATMENT,2013-02-19T09:40,16
CDISCPILOT01,LB,CDISC005,64,PH,pH,URINALYSIS,6,,5,8,6,6,,5,8,NORMAL,,4,WEEK 2,TREATMENT,2013-02-19T09:40,16
CDISCPILOT01,LB,CDISC005,65,PHOS,Phosphate,CHEMISTRY,3.8,mg/dL,2.2,5.1,1.22702,1.22702,mmol/L,0.71,1.65,NORMAL,,4,WEEK 2,TREATMENT,2013-02-19T09:40,16
CDISCPILOT01,LB,CDISC005,66,PLAT,Platelets,HEMATOLOGY,341,10^9/L,130,394,341,341,10^9/L,130,394,NORMAL,,4,WEEK 2,TREATMENT,2013-02-19T09:40,16
CDISCPILOT01,LB,CDISC005,67,PROT,Protein,CHEMISTRY,6.6,g/dL,6,8,66,66,g/L,60,80,NORMAL,,4,WEEK 2,TREATMENT,2013-02-19T09:40,16
CDISCPILOT01,LB,CDISC005,68,RBC,Erythrocytes,HEMATOLOGY,4.40,10^12/L,3.9,5.5,4.4,4.399999999999999,10^12/L,3.9,5.5,NORMAL,,4,WEEK 2,TREATMENT,2013-02-19T09:40,16
CDISCPILOT01,LB,CDISC005,69,SPGRAV,Specific Gravity,URINALYSIS,1.016,,1.006,1.03,1.016,1.016,,1.006,1.03,NORMAL,,4,WEEK 2,TREATMENT,2013-02-19T09:40,16
CDISCPILOT01,LB,CDISC005,70,URATE,Urate,CHEMISTRY,3.5,mg/dL,2.5,7.5,208.18,208.18,umol/L,149,446,NORMAL,,4,WEEK 2,TREATMENT,2013-02-19T09:40,16
CDISCPILOT01,LB,CDISC005,71,UROBIL,Urobilinogen,URINALYSIS,0,,,,0,0,,,,NORMAL,,4,WEEK 2,TREATMENT,2013-02-19T09:40,16
CDISCPILOT01,LB,CDISC005,72,WBC,Leukocytes,HEMATOLOGY,6.73,10^9/L,3.8,10.7,6.73,6.73,10^9/L,3.8,10.7,NORMAL,,4,WEEK 2,TREATMENT,2013-02-19T09:40,16
CDISCPILOT01,LB,CDISC005,73,ALB,Albumin,CHEMISTRY,4.0,g/dL,3.5,4.6,40,40,g/L,35,46,NORMAL,,5,WEEK 4,TREATMENT,2013-03-12T11:50,37
CDISCPILOT01,LB,CDISC005,74,ALP,Alkaline Phosphatase,CHEMISTRY,61,U/L,35,115,61,61,U/L,35,115,NORMAL,,5,WEEK 4,TREATMENT,2013-03-12T11:50,37
CDISCPILOT01,LB,CDISC005,75,ALT,Alanine Aminotransferase,CHEMISTRY,14,U/L,6,32,14,14,U/L,6,32,NORMAL,,5,WEEK 4,TREATMENT,2013-03-12T11:50,37
CDISCPILOT01,LB,CDISC005,76,AST,Aspartate Aminotransferase,CHEMISTRY,20,U/L,9,34,20,20,U/L,9,34,NORMAL,,5,WEEK 4,TREATMENT,2013-03-12T11:50,37
CDISCPILOT01,LB,CDISC005,77,BASO,Basophils,HEMATOLOGY,0.03,10^9/L,0,0.2,0.03,0.03,10^9/L,0,0.2,NORMAL,,5,WEEK 4,TREATMENT,2013-03-12T11:50,37
CDISCPILOT01,LB,CDISC005,78,BILI,Bilirubin,CHEMISTRY,0.4,mg/dL,0.2,1.2,6.84,6.84,umol/L,3,21,NORMAL,,5,WEEK 4,TREATMENT,2013-03-12T11:50,37
CDISCPILOT01,LB,CDISC005,79,UREAN,Urea Nitrogen,CHEMISTRY,9,mg/dL,4,24,3.213,3.213,mmol/L,1.4,8.6,NORMAL,,5,WEEK 4,TREATMENT,2013-03-12T11:50,37
CDISCPILOT01,LB,CDISC005,80,CA,Calcium,CHEMISTRY,9.1,mg/dL,8.4,10.3,2.27045,2.27045,mmol/L,2.1,2.57,NORMAL,,5,WEEK 4,TREATMENT,2013-03-12T11:50,37
CDISCPILOT01,LB,CDISC005,81,CHOL,Cholesterol,CHEMISTRY,177,mg/dL,156,300,4.57722,4.57722,mmol/L,4.029999999999999,7.76,NORMAL,,5,WEEK 4,TREATMENT,2013-03-12T11:50,37
CDISCPILOT01,LB,CDISC005,82,CK,Creatine Kinase,CHEMISTRY,119,U/L,21,169,119,119,U/L,21,169,NORMAL,,5,WEEK 4,TREATMENT,2013-03-12T11:50,37
CDISCPILOT01,LB,CDISC005,83,CL,Chloride,CHEMISTRY,105,mEq/L,94,112,105,105,mmol/L,94,112,NORMAL,,5,WEEK 4,TREATMENT,2013-03-12T11:50,37
CDISCPILOT01,LB,CDISC005,84,CREAT,Creatinine,CHEMISTRY,0.9,mg/dL,0.7,1.4,79.56,79.55999999999999,umol/L,62,124,NORMAL,,5,WEEK 4,TREATMENT,2013-03-12T11:50,37
CDISCPILOT01,LB,CDISC005,85,EOS,Eosinophils,HEMATOLOGY,0.06,10^9/L,0,0.57,0.06,0.06,10^9/L,0,0.57,NORMAL,,5,WEEK 4,TREATMENT,2013-03-12T11:50,37
CDISCPILOT01,LB,CDISC005,86,GGT,Gamma Glutamyl Transferase,CHEMISTRY,11,U/L,5,50,11,11,U/L,5,50,NORMAL,,5,WEEK 4,TREATMENT,2013-03-12T11:50,37
CDISCPILOT01,LB,CDISC005,87,GLUC,Glucose,CHEMISTRY,87,mg/dL,50,250,4.82937,4.82937,mmol/L,2.8,13.9,NORMAL,,5,WEEK 4,TREATMENT,2013-03-12T11:50,37
CDISCPILOT01,LB,CDISC005,88,HCT,Hematocrit,HEMATOLOGY,38.0,%,34,48,0.38,0.38,,0.34,0.48,NORMAL,,5,WEEK 4,TREATMENT,2013-03-12T11:50,37
CDISCPILOT01,LB,CDISC005,89,HGB,Hemoglobin,HEMATOLOGY,12.5,g/dL,11.5,15.8,7.7575,7.7575,mmol/L,7.14,9.809999999999999,NORMAL,,5,WEEK 4,TREATMENT,2013-03-12T11:50,37
CDISCPILOT01,LB,CDISC005,90,K,Potassium,CHEMISTRY,4.4,mEq/L,3.4,5.4,4.4,4.399999999999999,mmol/L,3.4,5.399999999999999,NORMAL,,5,WEEK 4,TREATMENT,2013-03-12T11:50,37
CDISCPILOT01,LB,CDISC005,91,LYM,Lymphocytes,HEMATOLOGY,1.78,10^9/L,0.8,3,1.78,1.78,10^9/L,0.8,3,NORMAL,,5,WEEK 4,TREATMENT,2013-03-12T11:50,37
CDISCPILOT01,LB,CDISC005,92,MCH,Ery. Mean Corpuscular Hemoglobin,HEMATOLOGY,31,pg,26,34,1.92386,1.92386,fmol,1.6,2.1,NORMAL,,5,WEEK 4,TREATMENT,2013-03-12T11:50,37
CDISCPILOT01,LB,CDISC005,93,MCHC,Ery. Mean Corpuscular HGB Concentration,HEMATOLOGY,33,g/dL,31,38,20.4798,20.4798,mmol/L,19,24,NORMAL,,5,WEEK 4,TREATMENT,2013-03-12T11:50,37
CDISCPILOT01,LB,CDISC005,94,MCV,Ery. Mean Corpuscular Volume,HEMATOLOGY,93,fL,80,100,93,93,fL,80,100,NORMAL,,5,WEEK 4,TREATMENT,2013-03-12T11:50,37
CDISCPILOT01,LB,CDISC005,95,MONO,Monocytes,HEMATOLOGY,0.29,10^9/L,0.12,0.92,0.29,0.29,10^9/L,0.12,0.92,NORMAL,,5,WEEK 4,TREATMENT,2013-03-12T11:50,37
CDISCPILOT01,LB,CDISC005,96,SODIUM,Sodium,CHEMISTRY,137,mEq/L,135,145,137,137,mmol/L,135,145,NORMAL,,5,WEEK 4,TREATMENT,2013-03-12T11:50,37
CDISCPILOT01,LB,CDISC005,97,PHOS,Phosphate,CHEMISTRY,4.0,mg/dL,2.2,5.1,1.2916,1.2916,mmol/L,0.71,1.65,NORMAL,,5,WEEK 4,TREATMENT,2013-03-12T11:50,37
CDISCPILOT01,LB,CDISC005,98,PLAT,Platelets,HEMATOLOGY,308,10^9/L,130,394,308,308,10^9/L,130,394,NORMAL,,5,WEEK 4,TREATMENT,2013-03-12T11:50,37
CDISCPILOT01,LB,CDISC005,99,PROT,Protein,CHEMISTRY,6.5,g/dL,6,8,65,65,g/L,60,80,NORMAL,,5,WEEK 4,TREATMENT,2013-03-12T11:50,37
CDISCPILOT01,LB,CDISC005,100,RBC,Erythrocytes,HEMATOLOGY,4.10,10^12/L,3.9,5.5,4.1,4.1,10^12/L,3.9,5.5,NORMAL,,5,WEEK 4,TREATMENT,2013-03-12T11:50,37
CDISCPILOT01,LB,CDISC005,101,URATE,Urate,CHEMISTRY,3.2,mg/dL,2.5,7.5,190.336,190.336,umol/L,149,446,NORMAL,,5,WEEK 4,TREATMENT,2013-03-12T11:50,37
CDISCPILOT01,LB,CDISC005,102,WBC,Leukocytes,HEMATOLOGY,5.28,10^9/L,3.8,10.7,5.28,5.279999999999999,10^9/L,3.8,10.7,NORMAL,,5,WEEK 4,TREATMENT,2013-03-12T11:50,37
CDISCPILOT01,LB,CDISC005,103,ALB,Albumin,CHEMISTRY,3.9,g/dL,3.5,4.6,39,39,g/L,35,46,NORMAL,,7,WEEK 6,TREATMENT,2013-03-19T08:57,44
CDISCPILOT01,LB,CDISC005,104,ALP,Alkaline Phosphatase,CHEMISTRY,63,U/L,35,115,63,63,U/L,35,115,NORMAL,,7,WEEK 6,TREATMENT,2013-03-19T08:57,44
CDISCPILOT01,LB,CDISC005,105,ALT,Alanine Aminotransferase,CHEMISTRY,17,U/L,6,32,17,17,U/L,6,32,NORMAL,,7,WEEK 6,TREATMENT,2013-03-19T08:57,44
CDISCPILOT01,LB,CDISC005,106,AST,Aspartate Aminotransferase,CHEMISTRY,23,U/L,9,34,23,23,U/L,9,34,NORMAL,,7,WEEK 6,TREATMENT,2013-03-19T08:57,44
CDISCPILOT01,LB,CDISC005,107,BASO,Basophils,HEMATOLOGY,0.04,10^9/L,0,0.2,0.04,0.03999999999999999,10^9/L,0,0.2,NORMAL,,7,WEEK 6,TREATMENT,2013-03-19T08:57,44
CDISCPILOT01,LB,CDISC005,108,BILI,Bilirubin,CHEMISTRY,0.5,mg/dL,0.2,1.2,8.55,8.549999999999999,umol/L,3,21,NORMAL,,7,WEEK 6,TREATMENT,2013-03-19T08:57,44
CDISCPILOT01,LB,CDISC005,109,UREAN,Urea Nitrogen,CHEMISTRY,9,mg/dL,4,24,3.213,3.213,mmol/L,1.4,8.6,NORMAL,,7,WEEK 6,TREATMENT,2013-03-19T08:57,44
CDISCPILOT01,LB,CDISC005,110,CA,Calcium,CHEMISTRY,9.4,mg/dL,8.4,10.3,2.3453,2.3453,mmol/L,2.1,2.57,NORMAL,,7,WEEK 6,TREATMENT,2013-03-19T08:57,44
CDISCPILOT01,LB,CDISC005,111,CHOL,Cholesterol,CHEMISTRY,183,mg/dL,156,300,4.73238,4.73238,mmol/L,4.029999999999999,7.76,NORMAL,,7,WEEK 6,TREATMENT,2013-03-19T08:57,44
CDISCPILOT01,LB,CDISC005,112,CK,Creatine Kinase,CHEMISTRY,95,U/L,21,169,95,95,U/L,21,169,NORMAL,,7,WEEK 6,TREATMENT,2013-03-19T08:57,44
CDISCPILOT01,LB,CDISC005,113,CL,Chloride,CHEMISTRY,106,mEq/L,94,112,106,106,mmol/L,94,112,NORMAL,,7,WEEK 6,TREATMENT,2013-03-19T08:57,44
CDISCPILOT01,LB,CDISC005,114,CREAT,Creatinine,CHEMISTRY,0.9,mg/dL,0.7,1.4,79.56,79.55999999999999,umol/L,62,124,NORMAL,,7,WEEK 6,TREATMENT,2013-03-19T08:57,44
CDISCPILOT01,LB,CDISC005,115,EOS,Eosinophils,HEMATOLOGY,0.05,10^9/L,0,0.57,0.05,0.05,10^9/L,0,0.57,NORMAL,,7,WEEK 6,TREATMENT,2013-03-19T08:57,44
CDISCPILOT01,LB,CDISC005,116,GGT,Gamma Glutamyl Transferase,CHEMISTRY,11,U/L,5,50,11,11,U/L,5,50,NORMAL,,7,WEEK 6,TREATMENT,2013-03-19T08:57,44
CDISCPILOT01,LB,CDISC005,117,GLUC,Glucose,CHEMISTRY,86,mg/dL,50,250,4.77386,4.77386,mmol/L,2.8,13.9,NORMAL,,7,WEEK 6,TREATMENT,2013-03-19T08:57,44
CDISCPILOT01,LB,CDISC005,118,HCT,Hematocrit,HEMATOLOGY,39.0,%,34,48,0.39,0.39,,0.34,0.48,NORMAL,,7,WEEK 6,TREATMENT,2013-03-19T08:57,44
CDISCPILOT01,LB,CDISC005,119,HGB,Hemoglobin,HEMATOLOGY,13.0,g/dL,11.5,15.8,8.0678,8.0678,mmol/L,7.14,9.809999999999999,NORMAL,,7,WEEK 6,TREATMENT,2013-03-19T08:57,44
CDISCPILOT01,LB,CDISC005,120,K,Potassium,CHEMISTRY,4.5,mEq/L,3.4,5.4,4.5,4.5,mmol/L,3.4,5.399999999999999,NORMAL,,7,WEEK 6,TREATMENT,2013-03-19T08:57,44
CDISCPILOT01,LB,CDISC005,121,LYM,Lymphocytes,HEMATOLOGY,1.36,10^9/L,0.8,3,1.36,1.36,10^9/L,0.8,3,NORMAL,,7,WEEK 6,TREATMENT,2013-03-19T08:57,44
CDISCPILOT01,LB,CDISC005,122,MCH,Ery. Mean Corpuscular Hemoglobin,HEMATOLOGY,31,pg,26,34,1.92386,1.92386,fmol,1.6,2.1,NORMAL,,7,WEEK 6,TREATMENT,2013-03-19T08:57,44
CDISCPILOT01,LB,CDISC005,123,MCHC,Ery. Mean Corpuscular HGB Concentration,HEMATOLOGY,34,g/dL,31,38,21.1004,21.1004,mmol/L,19,24,NORMAL,,7,WEEK 6,TREATMENT,2013-03-19T08:57,44
CDISCPILOT01,LB,CDISC005,124,MCV,Ery. Mean Corpuscular Volume,HEMATOLOGY,91,fL,80,100,91,91,fL,80,100,NORMAL,,7,WEEK 6,TREATMENT,2013-03-19T08:57,44
CDISCPILOT01,LB,CDISC005,125,MONO,Monocytes,HEMATOLOGY,0.27,10^9/L,0.12,0.92,0.27,0.27,10^9/L,0.12,0.92,NORMAL,,7,WEEK 6,TREATMENT,2013-03-19T08:57,44
CDISCPILOT01,LB,CDISC005,126,SODIUM,Sodium,CHEMISTRY,137,mEq/L,135,145,137,137,mmol/L,135,145,NORMAL,,7,WEEK 6,TREATMENT,2013-03-19T08:57,44
CDISCPILOT01,LB,CDISC005,127,PHOS,Phosphate,CHEMISTRY,4.0,mg/dL,2.2,5.1,1.2916,1.2916,mmol/L,0.71,1.65,NORMAL,,7,WEEK 6,TREATMENT,2013-03-19T08:57,44
CDISCPILOT01,LB,CDISC005,128,PLAT,Platelets,HEMATOLOGY,330,10^9/L,130,394,330,330,10^9/L,130,394,NORMAL,,7,WEEK 6,TREATMENT,2013-03-19T08:57,44
CDISCPILOT01,LB,CDISC005,129,PROT,Protein,CHEMISTRY,6.8,g/dL,6,8,68,68,g/L,60,80,NORMAL,,7,WEEK 6,TREATMENT,2013-03-19T08:57,44
CDISCPILOT01,LB,CDISC005,130,RBC,Erythrocytes,HEMATOLOGY,4.30,10^12/L,3.9,5.5,4.3,4.3,10^12/L,3.9,5.5,NORMAL,,7,WEEK 6,TREATMENT,2013-03-19T08:57,44
CDISCPILOT01,LB,CDISC005,131,URATE,Urate,CHEMISTRY,3.5,mg/dL,2.5,7.5,208.18,208.18,umol/L,149,446,NORMAL,,7,WEEK 6,TREATMENT,2013-03-19T08:57,44
CDISCPILOT01,LB,CDISC005,132,WBC,Leukocytes,HEMATOLOGY,4.56,10^9/L,3.8,10.7,4.56,4.56,10^9/L,3.8,10.7,NORMAL,,7,WEEK 6,TREATMENT,2013-03-19T08:57,44
CDISCPILOT01,LB,CDISC005,133,ALB,Albumin,CHEMISTRY,4.0,g/dL,3.5,4.6,40,40,g/L,35,46,NORMAL,,8,WEEK 8,TREATMENT,2013-04-02T10:32,58
CDISCPILOT01,LB,CDISC005,134,ALP,Alkaline Phosphatase,CHEMISTRY,56,U/L,35,115,56,56,U/L,35,115,NORMAL,,8,WEEK 8,TREATMENT,2013-04-02T10:32,58
CDISCPILOT01,LB,CDISC005,135,ALT,Alanine Aminotransferase,CHEMISTRY,18,U/L,6,32,18,18,U/L,6,32,NORMAL,,8,WEEK 8,TREATMENT,2013-04-02T10:32,58
CDISCPILOT01,LB,CDISC005,136,AST,Aspartate Aminotransferase,CHEMISTRY,25,U/L,9,34,25,25,U/L,9,34,NORMAL,,8,WEEK 8,TREATMENT,2013-04-02T10:32,58
CDISCPILOT01,LB,CDISC005,137,BASO,Basophils,HEMATOLOGY,0.05,10^9/L,0,0.2,0.05,0.05,10^9/L,0,0.2,NORMAL,,8,WEEK 8,TREATMENT,2013-04-02T10:32,58
CDISCPILOT01,LB,CDISC005,138,BILI,Bilirubin,CHEMISTRY,0.3,mg/dL,0.2,1.2,5.13,5.13,umol/L,3,21,NORMAL,,8,WEEK 8,TREATMENT,2013-04-02T10:32,58
CDISCPILOT01,LB,CDISC005,139,UREAN,Urea Nitrogen,CHEMISTRY,10,mg/dL,4,24,3.57,3.57,mmol/L,1.4,8.6,NORMAL,,8,WEEK 8,TREATMENT,2013-04-02T10:32,58
CDISCPILOT01,LB,CDISC005,140,CA,Calcium,CHEMISTRY,9.1,mg/dL,8.4,10.3,2.27045,2.27045,mmol/L,2.1,2.57,NORMAL,,8,WEEK 8,TREATMENT,2013-04-02T10:32,58
CDISCPILOT01,LB,CDISC005,141,CHOL,Cholesterol,CHEMISTRY,177,mg/dL,156,300,4.57722,4.57722,mmol/L,4.029999999999999,7.76,NORMAL,,8,WEEK 8,TREATMENT,2013-04-02T10:32,58
CDISCPILOT01,LB,CDISC005,142,CK,Creatine Kinase,CHEMISTRY,142,U/L,21,169,142,142,U/L,21,169,NORMAL,,8,WEEK 8,TREATMENT,2013-04-02T10:32,58
CDISCPILOT01,LB,CDISC005,143,CL,Chloride,CHEMISTRY,105,mEq/L,94,112,105,105,mmol/L,94,112,NORMAL,,8,WEEK 8,TREATMENT,2013-04-02T10:32,58
CDISCPILOT01,LB,CDISC005,144,CREAT,Creatinine,CHEMISTRY,0.9,mg/dL,0.7,1.4,79.56,79.55999999999999,umol/L,62,124,NORMAL,,8,WEEK 8,TREATMENT,2013-04-02T10:32,58
CDISCPILOT01,LB,CDISC005,145,EOS,Eosinophils,HEMATOLOGY,0.13,10^9/L,0,0.57,0.13,0.13,10^9/L,0,0.57,NORMAL,,8,WEEK 8,TREATMENT,2013-04-02T10:32,58
CDISCPILOT01,LB,CDISC005,146,GGT,Gamma Glutamyl Transferase,CHEMISTRY,11,U/L,5,50,11,11,U/L,5,50,NORMAL,,8,WEEK 8,TREATMENT,2013-04-02T10:32,58
CDISCPILOT01,LB,CDISC005,147,GLUC,Glucose,CHEMISTRY,83,mg/dL,50,250,4.60733,4.607329999999999,mmol/L,2.8,13.9,NORMAL,,8,WEEK 8,TREATMENT,2013-04-02T10:32,58
CDISCPILOT01,LB,CDISC005,148,HCT,Hematocrit,HEMATOLOGY,40.0,%,34,48,0.4,0.4,,0.34,0.48,NORMAL,,8,WEEK 8,TREATMENT,2013-04-02T10:32,58
CDISCPILOT01,LB,CDISC005,149,HGB,Hemoglobin,HEMATOLOGY,12.6,g/dL,11.5,15.8,7.81956,7.81956,mmol/L,7.14,9.809999999999999,NORMAL,,8,WEEK 8,TREATMENT,2013-04-02T10:32,58
CDISCPILOT01,LB,CDISC005,150,K,Potassium,CHEMISTRY,3.5,mEq/L,3.4,5.4,3.5,3.5,mmol/L,3.4,5.399999999999999,NORMAL,,8,WEEK 8,TREATMENT,2013-04-02T10:32,58
CDISCPILOT01,LB,CDISC005,151,LYM,Lymphocytes,HEMATOLOGY,1.59,10^9/L,0.8,3,1.59,1.59,10^9/L,0.8,3,NORMAL,,8,WEEK 8,TREATMENT,2013-04-02T10:32,58
CDISCPILOT01,LB,CDISC005,152,MCH,Ery. Mean Corpuscular Hemoglobin,HEMATOLOGY,29,pg,26,34,1.79974,1.79974,fmol,1.6,2.1,NORMAL,,8,WEEK 8,TREATMENT,2013-04-02T10:32,58
CDISCPILOT01,LB,CDISC005,153,MCHC,Ery. Mean Corpuscular HGB Concentration,HEMATOLOGY,32,g/dL,31,38,19.8592,19.8592,mmol/L,19,24,NORMAL,,8,WEEK 8,TREATMENT,2013-04-02T10:32,58
CDISCPILOT01,LB,CDISC005,154,MCV,Ery. Mean Corpuscular Volume,HEMATOLOGY,90,fL,80,100,90,90,fL,80,100,NORMAL,,8,WEEK 8,TREATMENT,2013-04-02T10:32,58
CDISCPILOT01,LB,CDISC005,155,MONO,Monocytes,HEMATOLOGY,0.23,10^9/L,0.12,0.92,0.23,0.23,10^9/L,0.12,0.92,NORMAL,,8,WEEK 8,TREATMENT,2013-04-02T10:32,58
CDISCPILOT01,LB,CDISC005,156,SODIUM,Sodium,CHEMISTRY,139,mEq/L,135,145,139,139,mmol/L,135,145,NORMAL,,8,WEEK 8,TREATMENT,2013-04-02T10:32,58
CDISCPILOT01,LB,CDISC005,157,PHOS,Phosphate,CHEMISTRY,3.6,mg/dL,2.2,5.1,1.16244,1.16244,mmol/L,0.71,1.65,NORMAL,,8,WEEK 8,TREATMENT,2013-04-02T10:32,58
CDISCPILOT01,LB,CDISC005,158,PLAT,Platelets,HEMATOLOGY,356,10^9/L,130,394,356,356,10^9/L,130,394,NORMAL,,8,WEEK 8,TREATMENT,2013-04-02T10:32,58
CDISCPILOT01,LB,CDISC005,159,PROT,Protein,CHEMISTRY,6.8,g/dL,6,8,68,68,g/L,60,80,NORMAL,,8,WEEK 8,TREATMENT,2013-04-02T10:32,58
CDISCPILOT01,LB,CDISC005,160,RBC,Erythrocytes,HEMATOLOGY,4.40,10^12/L,3.9,5.5,4.4,4.399999999999999,10^12/L,3.9,5.5,NORMAL,,8,WEEK 8,TREATMENT,2013-04-02T10:32,58
CDISCPILOT01,LB,CDISC005,161,URATE,Urate,CHEMISTRY,3.4,mg/dL,2.5,7.5,202.232,202.232,umol/L,149,446,NORMAL,,8,WEEK 8,TREATMENT,2013-04-02T10:32,58
CDISCPILOT01,LB,CDISC005,162,WBC,Leukocytes,HEMATOLOGY,4.48,10^9/L,3.8,10.7,4.48,4.48,10^9/L,3.8,10.7,NORMAL,,8,WEEK 8,TREATMENT,2013-04-02T10:32,58
CDISCPILOT01,LB,CDISC005,163,ALB,Albumin,CHEMISTRY,3.9,g/dL,3.5,4.6,39,39,g/L,35,46,NORMAL,,9,WEEK 12,TREATMENT,2013-04-30T13:14,86
CDISCPILOT01,LB,CDISC005,164,ALP,Alkaline Phosphatase,CHEMISTRY,57,U/L,35,115,57,57,U/L,35,115,NORMAL,,9,WEEK 12,TREATMENT,2013-04-30T13:14,86
CDISCPILOT01,LB,CDISC005,165,ALT,Alanine Aminotransferase,CHEMISTRY,13,U/L,6,32,13,13,U/L,6,32,NORMAL,,9,WEEK 12,TREATMENT,2013-04-30T13:14,86
CDISCPILOT01,LB,CDISC005,166,AST,Aspartate Aminotransferase,CHEMISTRY,20,U/L,9,34,20,20,U/L,9,34,NORMAL,,9,WEEK 12,TREATMENT,2013-04-30T13:14,86
CDISCPILOT01,LB,CDISC005,167,BASO,Basophils,HEMATOLOGY,0.03,10^9/L,0,0.2,0.03,0.03,10^9/L,0,0.2,NORMAL,,9,WEEK 12,TREATMENT,2013-04-30T13:14,86
CDISCPILOT01,LB,CDISC005,168,BILI,Bilirubin,CHEMISTRY,0.6,mg/dL,0.2,1.2,10.26,10.26,umol/L,3,21,NORMAL,,9,WEEK 12,TREATMENT,2013-04-30T13:14,86
CDISCPILOT01,LB,CDISC005,169,UREAN,Urea Nitrogen,CHEMISTRY,13,mg/dL,4,24,4.641,4.641,mmol/L,1.4,8.6,NORMAL,,9,WEEK 12,TREATMENT,2013-04-30T13:14,86
CDISCPILOT01,LB,CDISC005,170,CA,Calcium,CHEMISTRY,9.0,mg/dL,8.4,10.3,2.2455,2.2455,mmol/L,2.1,2.57,NORMAL,,9,WEEK 12,TREATMENT,2013-04-30T13:14,86
CDISCPILOT01,LB,CDISC005,171,CHOL,Cholesterol,CHEMISTRY,190,mg/dL,156,300,4.9134,4.913399999999999,mmol/L,4.029999999999999,7.76,NORMAL,,9,WEEK 12,TREATMENT,2013-04-30T13:14,86
CDISCPILOT01,LB,CDISC005,172,CK,Creatine Kinase,CHEMISTRY,85,U/L,21,169,85,85,U/L,21,169,NORMAL,,9,WEEK 12,TREATMENT,2013-04-30T13:14,86
CDISCPILOT01,LB,CDISC005,173,CL,Chloride,CHEMISTRY,110,mEq/L,94,112,110,110,mmol/L,94,112,NORMAL,,9,WEEK 12,TREATMENT,2013-04-30T13:14,86
CDISCPILOT01,LB,CDISC005,174,COLOR,Color,URINALYSIS,NORMAL,,,,NORMAL,,,,,NORMAL,,9,WEEK 12,TREATMENT,2013-04-30T13:14,86
CDISCPILOT01,LB,CDISC005,175,CREAT,Creatinine,CHEMISTRY,1.0,mg/dL,0.7,1.4,88.4,88.39999999999998,umol/L,62,124,NORMAL,,9,WEEK 12,TREATMENT,2013-04-30T13:14,86
CDISCPILOT01,LB,CDISC005,176,EOS,Eosinophils,HEMATOLOGY,0.29,10^9/L,0,0.57,0.29,0.29,10^9/L,0,0.57,NORMAL,,9,WEEK 12,TREATMENT,2013-04-30T13:14,86
CDISCPILOT01,LB,CDISC005,177,GGT,Gamma Glutamyl Transferase,CHEMISTRY,11,U/L,5,50,11,11,U/L,5,50,NORMAL,,9,WEEK 12,TREATMENT,2013-04-30T13:14,86
CDISCPILOT01,LB,CDISC005,178,GLUC,Glucose,CHEMISTRY,94,mg/dL,50,250,5.21794,5.21794,mmol/L,2.8,13.9,NORMAL,,9,WEEK 12,TREATMENT,2013-04-30T13:14,86
CDISCPILOT01,LB,CDISC005,179,HCT,Hematocrit,HEMATOLOGY,38.0,%,34,48,0.38,0.38,,0.34,0.48,NORMAL,,9,WEEK 12,TREATMENT,2013-04-30T13:14,86
CDISCPILOT01,LB,CDISC005,180,HGB,Hemoglobin,HEMATOLOGY,12.9,g/dL,11.5,15.8,8.00574,8.00574,mmol/L,7.14,9.809999999999999,NORMAL,,9,WEEK 12,TREATMENT,2013-04-30T13:14,86
CDISCPILOT01,LB,CDISC005,181,K,Potassium,CHEMISTRY,4.6,mEq/L,3.4,5.4,4.6,4.6,mmol/L,3.4,5.399999999999999,NORMAL,,9,WEEK 12,TREATMENT,2013-04-30T13:14,86
CDISCPILOT01,LB,CDISC005,182,KETONES,Ketones,URINALYSIS,0,,,,0,0,,,,NORMAL,,9,WEEK 12,TREATMENT,2013-04-30T13:14,86
CDISCPILOT01,LB,CDISC005,183,LYM,Lymphocytes,HEMATOLOGY,1.72,10^9/L,0.8,3,1.72,1.72,10^9/L,0.8,3,NORMAL,,9,WEEK 12,TREATMENT,2013-04-30T13:14,86
CDISCPILOT01,LB,CDISC005,184,MCH,Ery. Mean Corpuscular Hemoglobin,HEMATOLOGY,30,pg,26,34,1.8618,1.8618,fmol,1.6,2.1,NORMAL,,9,WEEK 12,TREATMENT,2013-04-30T13:14,86
CDISCPILOT01,LB,CDISC005,185,MCHC,Ery. Mean Corpuscular HGB Concentration,HEMATOLOGY,34,g/dL,31,38,21.1004,21.1004,mmol/L,19,24,NORMAL,,9,WEEK 12,TREATMENT,2013-04-30T13:14,86
CDISCPILOT01,LB,CDISC005,186,MCV,Ery. Mean Corpuscular Volume,HEMATOLOGY,90,fL,80,100,90,90,fL,80,100,NORMAL,,9,WEEK 12,TREATMENT,2013-04-30T13:14,86
CDISCPILOT01,LB,CDISC005,187,MONO,Monocytes,HEMATOLOGY,0.31,10^9/L,0.12,0.92,0.31,0.31,10^9/L,0.12,0.92,NORMAL,,9,WEEK 12,TREATMENT,2013-04-30T13:14,86
CDISCPILOT01,LB,CDISC005,188,SODIUM,Sodium,CHEMISTRY,139,mEq/L,135,145,139,139,mmol/L,135,145,NORMAL,,9,WEEK 12,TREATMENT,2013-04-30T13:14,86
CDISCPILOT01,LB,CDISC005,189,PH,pH,URINALYSIS,5,,5,8,5,5,,5,8,NORMAL,,9,WEEK 12,TREATMENT,2013-04-30T13:14,86
CDISCPILOT01,LB,CDISC005,190,PHOS,Phosphate,CHEMISTRY,4.5,mg/dL,2.2,5.1,1.45305,1.45305,mmol/L,0.71,1.65,NORMAL,,9,WEEK 12,TREATMENT,2013-04-30T13:14,86
CDISCPILOT01,LB,CDISC005,191,PLAT,Platelets,HEMATOLOGY,296,10^9/L,130,394,296,296,10^9/L,130,394,NORMAL,,9,WEEK 12,TREATMENT,2013-04-30T13:14,86
CDISCPILOT01,LB,CDISC005,192,PROT,Protein,CHEMISTRY,6.5,g/dL,6,8,65,65,g/L,60,80,NORMAL,,9,WEEK 12,TREATMENT,2013-04-30T13:14,86
CDISCPILOT01,LB,CDISC005,193,RBC,Erythrocytes,HEMATOLOGY,4.20,10^12/L,3.9,5.5,4.2,4.199999999999999,10^12/L,3.9,5.5,NORMAL,,9,WEEK 12,TREATMENT,2013-04-30T13:14,86
CDISCPILOT01,LB,CDISC005,194,SPGRAV,Specific Gravity,URINALYSIS,1.022,,1.006,1.03,1.022,1.022,,1.006,1.03,NORMAL,,9,WEEK 12,TREATMENT,2013-04-30T13:14,86
CDISCPILOT01,LB,CDISC005,195,URATE,Urate,CHEMISTRY,3.6,mg/dL,2.5,7.5,214.128,214.128,umol/L,149,446,NORMAL,,9,WEEK 12,TREATMENT,2013-04-30T13:14,86
CDISCPILOT01,LB,CDISC005,196,UROBIL,Urobilinogen,URINALYSIS,0,,,,0,0,,,,NORMAL,,9,WEEK 12,TREATMENT,2013-04-30T13:14,86
CDISCPILOT01,LB,CDISC005,197,WBC,Leukocytes,HEMATOLOGY,5.67,10^9/L,3.8,10.7,5.67,5.67,10^9/L,3.8,10.7,NORMAL,,9,WEEK 12,TREATMENT,2013-04-30T13:14,86
CDISCPILOT01,LB,CDISC005,198,ALB,Albumin,CHEMISTRY,4.0,g/dL,3.5,4.6,40,40,g/L,35,46,NORMAL,,10,WEEK 16,TREATMENT,2013-05-30T10:33,116
CDISCPILOT01,LB,CDISC005,199,ALP,Alkaline Phosphatase,CHEMISTRY,60,U/L,35,115,60,60,U/L,35,115,NORMAL,,10,WEEK 16,TREATMENT,2013-05-30T10:33,116
CDISCPILOT01,LB,CDISC005,200,ALT,Alanine Aminotransferase,CHEMISTRY,19,U/L,6,32,19,19,U/L,6,32,NORMAL,,10,WEEK 16,TREATMENT,2013-05-30T10:33,116
CDISCPILOT01,LB,CDISC005,201,AST,Aspartate Aminotransferase,CHEMISTRY,25,U/L,9,34,25,25,U/L,9,34,NORMAL,,10,WEEK 16,TREATMENT,2013-05-30T10:33,116
CDISCPILOT01,LB,CDISC005,202,BASO,Basophils,HEMATOLOGY,0.03,10^9/L,0,0.2,0.03,0.03,10^9/L,0,0.2,NORMAL,,10,WEEK 16,TREATMENT,2013-05-30T10:33,116
CDISCPILOT01,LB,CDISC005,203,BILI,Bilirubin,CHEMISTRY,0.5,mg/dL,0.2,1.2,8.55,8.549999999999999,umol/L,3,21,NORMAL,,10,WEEK 16,TREATMENT,2013-05-30T10:33,116
CDISCPILOT01,LB,CDISC005,204,UREAN,Urea Nitrogen,CHEMISTRY,10,mg/dL,4,24,3.57,3.57,mmol/L,1.4,8.6,NORMAL,,10,WEEK 16,TREATMENT,2013-05-30T10:33,116
CDISCPILOT01,LB,CDISC005,205,CA,Calcium,CHEMISTRY,9.6,mg/dL,8.4,10.3,2.3952,2.3952,mmol/L,2.1,2.57,NORMAL,,10,WEEK 16,TREATMENT,2013-05-30T10:33,116
CDISCPILOT01,LB,CDISC005,206,CHOL,Cholesterol,CHEMISTRY,186,mg/dL,156,300,4.80996,4.809959999999999,mmol/L,4.029999999999999,7.76,NORMAL,,10,WEEK 16,TREATMENT,2013-05-30T10:33,116
CDISCPILOT01,LB,CDISC005,207,CK,Creatine Kinase,CHEMISTRY,99,U/L,21,169,99,99,U/L,21,169,NORMAL,,10,WEEK 16,TREATMENT,2013-05-30T10:33,116
CDISCPILOT01,LB,CDISC005,208,CL,Chloride,CHEMISTRY,105,mEq/L,94,112,105,105,mmol/L,94,112,NORMAL,,10,WEEK 16,TREATMENT,2013-05-30T10:33,116
CDISCPILOT01,LB,CDISC005,209,CREAT,Creatinine,CHEMISTRY,0.9,mg/dL,0.7,1.4,79.56,79.55999999999999,umol/L,62,124,NORMAL,,10,WEEK 16,TREATMENT,2013-05-30T10:33,116
CDISCPILOT01,LB,CDISC005,210,EOS,Eosinophils,HEMATOLOGY,0.22,10^9/L,0,0.57,0.22,0.22,10^9/L,0,0.57,NORMAL,,10,WEEK 16,TREATMENT,2013-05-30T10:33,116
CDISCPILOT01,LB,CDISC005,211,GGT,Gamma Glutamyl Transferase,CHEMISTRY,13,U/L,5,50,13,13,U/L,5,50,NORMAL,,10,WEEK 16,TREATMENT,2013-05-30T10:33,116
CDISCPILOT01,LB,CDISC005,212,GLUC,Glucose,CHEMISTRY,92,mg/dL,50,250,5.10692,5.10692,mmol/L,2.8,13.9,NORMAL,,10,WEEK 16,TREATMENT,2013-05-30T10:33,116
CDISCPILOT01,LB,CDISC005,213,HCT,Hematocrit,HEMATOLOGY,39.0,%,34,48,0.39,0.39,,0.34,0.48,NORMAL,,10,WEEK 16,TREATMENT,2013-05-30T10:33,116
CDISCPILOT01,LB,CDISC005,214,HGB,Hemoglobin,HEMATOLOGY,13.4,g/dL,11.5,15.8,8.31604,8.31604,mmol/L,7.14,9.809999999999999,NORMAL,,10,WEEK 16,TREATMENT,2013-05-30T10:33,116
CDISCPILOT01,LB,CDISC005,215,K,Potassium,CHEMISTRY,4.2,mEq/L,3.4,5.4,4.2,4.199999999999999,mmol/L,3.4,5.399999999999999,NORMAL,,10,WEEK 16,TREATMENT,2013-05-30T10:33,116
CDISCPILOT01,LB,CDISC005,216,LYM,Lymphocytes,HEMATOLOGY,1.77,10^9/L,0.8,3,1.77,1.77,10^9/L,0.8,3,NORMAL,,10,WEEK 16,TREATMENT,2013-05-30T10:33,116
CDISCPILOT01,LB,CDISC005,217,MCH,Ery. Mean Corpuscular Hemoglobin,HEMATOLOGY,30,pg,26,34,1.8618,1.8618,fmol,1.6,2.1,NORMAL,,10,WEEK 16,TREATMENT,2013-05-30T10:33,116
CDISCPILOT01,LB,CDISC005,218,MCHC,Ery. Mean Corpuscular HGB Concentration,HEMATOLOGY,35,g/dL,31,38,21.721,21.721,mmol/L,19,24,NORMAL,,10,WEEK 16,TREATMENT,2013-05-30T10:33,116
CDISCPILOT01,LB,CDISC005,219,MCV,Ery. Mean Corpuscular Volume,HEMATOLOGY,87,fL,80,100,87,87,fL,80,100,NORMAL,,10,WEEK 16,TREATMENT,2013-05-30T10:33,116
CDISCPILOT01,LB,CDISC005,220,MONO,Monocytes,HEMATOLOGY,0.35,10^9/L,0.12,0.92,0.35,0.35,10^9/L,0.12,0.92,NORMAL,,10,WEEK 16,TREATMENT,2013-05-30T10:33,116
CDISCPILOT01,LB,CDISC005,221,SODIUM,Sodium,CHEMISTRY,138,mEq/L,135,145,138,138,mmol/L,135,145,NORMAL,,10,WEEK 16,TREATMENT,2013-05-30T10:33,116
CDISCPILOT01,LB,CDISC005,222,PHOS,Phosphate,CHEMISTRY,3.9,mg/dL,2.2,5.1,1.25931,1.25931,mmol/L,0.71,1.65,NORMAL,,10,WEEK 16,TREATMENT,2013-05-30T10:33,116
CDISCPILOT01,LB,CDISC005,223,PLAT,Platelets,HEMATOLOGY,346,10^9/L,130,394,346,346,10^9/L,130,394,NORMAL,,10,WEEK 16,TREATMENT,2013-05-30T10:33,116
CDISCPILOT01,LB,CDISC005,224,PROT,Protein,CHEMISTRY,7.0,g/dL,6,8,70,70,g/L,60,80,NORMAL,,10,WEEK 16,TREATMENT,2013-05-30T10:33,116
CDISCPILOT01,LB,CDISC005,225,RBC,Erythrocytes,HEMATOLOGY,4.40,10^12/L,3.9,5.5,4.4,4.399999999999999,10^12/L,3.9,5.5,NORMAL,,10,WEEK 16,TREATMENT,2013-05-30T10:33,116
CDISCPILOT01,LB,CDISC005,226,URATE,Urate,CHEMISTRY,3.0,mg/dL,2.5,7.5,178.44,178.44,umol/L,149,446,NORMAL,,10,WEEK 16,TREATMENT,2013-05-30T10:33,116
CDISCPILOT01,LB,CDISC005,227,WBC,Leukocytes,HEMATOLOGY,5.07,10^9/L,3.8,10.7,5.07,5.069999999999999,10^9/L,3.8,10.7,NORMAL,,10,WEEK 16,TREATMENT,2013-05-30T10:33,116
CDISCPILOT01,LB,CDISC005,228,ALB,Albumin,CHEMISTRY,4.2,g/dL,3.5,4.6,42,42,g/L,35,46,NORMAL,,11,WEEK 20,TREATMENT,2013-06-25T15:07,142
CDISCPILOT01,LB,CDISC005,229,ALP,Alkaline Phosphatase,CHEMISTRY,64,U/L,35,115,64,64,U/L,35,115,NORMAL,,11,WEEK 20,TREATMENT,2013-06-25T15:07,142
CDISCPILOT01,LB,CDISC005,230,ALT,Alanine Aminotransferase,CHEMISTRY,19,U/L,6,32,19,19,U/L,6,32,NORMAL,,11,WEEK 20,TREATMENT,2013-06-25T15:07,142
CDISCPILOT01,LB,CDISC005,231,AST,Aspartate Aminotransferase,CHEMISTRY,21,U/L,9,34,21,21,U/L,9,34,NORMAL,,11,WEEK 20,TREATMENT,2013-06-25T15:07,142
CDISCPILOT01,LB,CDISC005,232,BASO,Basophils,HEMATOLOGY,0.05,10^9/L,0,0.2,0.05,0.05,10^9/L,0,0.2,NORMAL,,11,WEEK 20,TREATMENT,2013-06-25T15:07,142
CDISCPILOT01,LB,CDISC005,233,BILI,Bilirubin,CHEMISTRY,0.4,mg/dL,0.2,1.2,6.84,6.84,umol/L,3,21,NORMAL,,11,WEEK 20,TREATMENT,2013-06-25T15:07,142
CDISCPILOT01,LB,CDISC005,234,UREAN,Urea Nitrogen,CHEMISTRY,12,mg/dL,4,24,4.284,4.284,mmol/L,1.4,8.6,NORMAL,,11,WEEK 20,TREATMENT,2013-06-25T15:07,142
CDISCPILOT01,LB,CDISC005,235,CA,Calcium,CHEMISTRY,8.8,mg/dL,8.4,10.3,2.1956,2.1956,mmol/L,2.1,2.57,NORMAL,,11,WEEK 20,TREATMENT,2013-06-25T15:07,142
CDISCPILOT01,LB,CDISC005,236,CHOL,Cholesterol,CHEMISTRY,202,mg/dL,156,300,5.22372,5.223719999999999,mmol/L,4.029999999999999,7.76,NORMAL,,11,WEEK 20,TREATMENT,2013-06-25T15:07,142
CDISCPILOT01,LB,CDISC005,237,CK,Creatine Kinase,CHEMISTRY,128,U/L,21,169,128,128,U/L,21,169,NORMAL,,11,WEEK 20,TREATMENT,2013-06-25T15:07,142
CDISCPILOT01,LB,CDISC005,238,CL,Chloride,CHEMISTRY,108,mEq/L,94,112,108,108,mmol/L,94,112,NORMAL,,11,WEEK 20,TREATMENT,2013-06-25T15:07,142
CDISCPILOT01,LB,CDISC005,239,CREAT,Creatinine,CHEMISTRY,1.0,mg/dL,0.7,1.4,88.4,88.39999999999998,umol/L,62,124,NORMAL,,11,WEEK 20,TREATMENT,2013-06-25T15:07,142
CDISCPILOT01,LB,CDISC005,240,EOS,Eosinophils,HEMATOLOGY,0.21,10^9/L,0,0.57,0.21,0.21,10^9/L,0,0.57,NORMAL,,11,WEEK 20,TREATMENT,2013-06-25T15:07,142
CDISCPILOT01,LB,CDISC005,241,GGT,Gamma Glutamyl Transferase,CHEMISTRY,12,U/L,5,50,12,12,U/L,5,50,NORMAL,,11,WEEK 20,TREATMENT,2013-06-25T15:07,142
CDISCPILOT01,LB,CDISC005,242,GLUC,Glucose,CHEMISTRY,88,mg/dL,50,250,4.88488,4.88488,mmol/L,2.8,13.9,NORMAL,,11,WEEK 20,TREATMENT,2013-06-25T15:07,142
CDISCPILOT01,LB,CDISC005,243,HCT,Hematocrit,HEMATOLOGY,40.0,%,34,48,0.4,0.4,,0.34,0.48,NORMAL,,11,WEEK 20,TREATMENT,2013-06-25T15:07,142
CDISCPILOT01,LB,CDISC005,244,HGB,Hemoglobin,HEMATOLOGY,13.1,g/dL,11.5,15.8,8.12986,8.12986,mmol/L,7.14,9.809999999999999,NORMAL,,11,WEEK 20,TREATMENT,2013-06-25T15:07,142
CDISCPILOT01,LB,CDISC005,245,K,Potassium,CHEMISTRY,4.5,mEq/L,3.4,5.4,4.5,4.5,mmol/L,3.4,5.399999999999999,NORMAL,,11,WEEK 20,TREATMENT,2013-06-25T15:07,142
CDISCPILOT01,LB,CDISC005,246,LYM,Lymphocytes,HEMATOLOGY,1.90,10^9/L,0.8,3,1.9,1.9,10^9/L,0.8,3,NORMAL,,11,WEEK 20,TREATMENT,2013-06-25T15:07,142
CDISCPILOT01,LB,CDISC005,247,MCH,Ery. Mean Corpuscular Hemoglobin,HEMATOLOGY,30,pg,26,34,1.8618,1.8618,fmol,1.6,2.1,NORMAL,,11,WEEK 20,TREATMENT,2013-06-25T15:07,142
CDISCPILOT01,LB,CDISC005,248,MCHC,Ery. Mean Corpuscular HGB Concentration,HEMATOLOGY,33,g/dL,31,38,20.4798,20.4798,mmol/L,19,24,NORMAL,,11,WEEK 20,TREATMENT,2013-06-25T15:07,142
CDISCPILOT01,LB,CDISC005,249,MCV,Ery. Mean Corpuscular Volume,HEMATOLOGY,92,fL,80,100,92,92,fL,80,100,NORMAL,,11,WEEK 20,TREATMENT,2013-06-25T15:07,142
CDISCPILOT01,LB,CDISC005,250,MONO,Monocytes,HEMATOLOGY,0.35,10^9/L,0.12,0.92,0.35,0.35,10^9/L,0.12,0.92,NORMAL,,11,WEEK 20,TREATMENT,2013-06-25T15:07,142
CDISCPILOT01,LB,CDISC005,251,SODIUM,Sodium,CHEMISTRY,143,mEq/L,135,145,143,143,mmol/L,135,145,NORMAL,,11,WEEK 20,TREATMENT,2013-06-25T15:07,142
CDISCPILOT01,LB,CDISC005,252,PHOS,Phosphate,CHEMISTRY,4.1,mg/dL,2.2,5.1,1.32389,1.32389,mmol/L,0.71,1.65,NORMAL,,11,WEEK 20,TREATMENT,2013-06-25T15:07,142
CDISCPILOT01,LB,CDISC005,253,PLAT,Platelets,HEMATOLOGY,314,10^9/L,130,394,314,314,10^9/L,130,394,NORMAL,,11,WEEK 20,TREATMENT,2013-06-25T15:07,142
CDISCPILOT01,LB,CDISC005,254,PROT,Protein,CHEMISTRY,7.0,g/dL,6,8,70,70,g/L,60,80,NORMAL,,11,WEEK 20,TREATMENT,2013-06-25T15:07,142
CDISCPILOT01,LB,CDISC005,255,RBC,Erythrocytes,HEMATOLOGY,4.30,10^12/L,3.9,5.5,4.3,4.3,10^12/L,3.9,5.5,NORMAL,,11,WEEK 20,TREATMENT,2013-06-25T15:07,142
CDISCPILOT01,LB,CDISC005,256,URATE,Urate,CHEMISTRY,3.5,mg/dL,2.5,7.5,208.18,208.18,umol/L,149,446,NORMAL,,11,WEEK 20,TREATMENT,2013-06-25T15:07,142
CDISCPILOT01,LB,CDISC005,257,WBC,Leukocytes,HEMATOLOGY,5.91,10^9/L,3.8,10.7,5.91,5.909999999999999,10^9/L,3.8,10.7,NORMAL,,11,WEEK 20,TREATMENT,2013-06-25T15:07,142
CDISCPILOT01,LB,CDISC005,258,ALB,Albumin,CHEMISTRY,4.1,g/dL,3.5,4.6,41,41,g/L,35,46,NORMAL,,12,WEEK 24,TREATMENT,2013-07-30T12:32,177
CDISCPILOT01,LB,CDISC005,259,ALP,Alkaline Phosphatase,CHEMISTRY,58,U/L,35,115,58,58,U/L,35,115,NORMAL,,12,WEEK 24,TREATMENT,2013-07-30T12:32,177
CDISCPILOT01,LB,CDISC005,260,ALT,Alanine Aminotransferase,CHEMISTRY,15,U/L,6,32,15,15,U/L,6,32,NORMAL,,12,WEEK 24,TREATMENT,2013-07-30T12:32,177
CDISCPILOT01,LB,CDISC005,261,AST,Aspartate Aminotransferase,CHEMISTRY,20,U/L,9,34,20,20,U/L,9,34,NORMAL,,12,WEEK 24,TREATMENT,2013-07-30T12:32,177
CDISCPILOT01,LB,CDISC005,262,BASO,Basophils,HEMATOLOGY,0.04,10^9/L,0,0.2,0.04,0.03999999999999999,10^9/L,0,0.2,NORMAL,,12,WEEK 24,TREATMENT,2013-07-30T12:32,177
CDISCPILOT01,LB,CDISC005,263,BILI,Bilirubin,CHEMISTRY,0.5,mg/dL,0.2,1.2,8.55,8.549999999999999,umol/L,3,21,NORMAL,,12,WEEK 24,TREATMENT,2013-07-30T12:32,177
CDISCPILOT01,LB,CDISC005,264,UREAN,Urea Nitrogen,CHEMISTRY,8,mg/dL,4,24,2.856,2.856,mmol/L,1.4,8.6,NORMAL,,12,WEEK 24,TREATMENT,2013-07-30T12:32,177
CDISCPILOT01,LB,CDISC005,265,CA,Calcium,CHEMISTRY,9.6,mg/dL,8.4,10.3,2.3952,2.3952,mmol/L,2.1,2.57,NORMAL,,12,WEEK 24,TREATMENT,2013-07-30T12:32,177
CDISCPILOT01,LB,CDISC005,266,CHOL,Cholesterol,CHEMISTRY,185,mg/dL,156,300,4.7841,4.7841,mmol/L,4.029999999999999,7.76,NORMAL,,12,WEEK 24,TREATMENT,2013-07-30T12:32,177
CDISCPILOT01,LB,CDISC005,267,CK,Creatine Kinase,CHEMISTRY,113,U/L,21,169,113,113,U/L,21,169,NORMAL,,12,WEEK 24,TREATMENT,2013-07-30T12:32,177
CDISCPILOT01,LB,CDISC005,268,CL,Chloride,CHEMISTRY,105,mEq/L,94,112,105,105,mmol/L,94,112,NORMAL,,12,WEEK 24,TREATMENT,2013-07-30T12:32,177
CDISCPILOT01,LB,CDISC005,269,COLOR,Color,URINALYSIS,NORMAL,,,,NORMAL,,,,,NORMAL,,12,WEEK 24,TREATMENT,2013-07-30T12:32,177
CDISCPILOT01,LB,CDISC005,270,CREAT,Creatinine,CHEMISTRY,1.0,mg/dL,0.7,1.4,88.4,88.39999999999998,umol/L,62,124,NORMAL,,12,WEEK 24,TREATMENT,2013-07-30T12:32,177
CDISCPILOT01,LB,CDISC005,271,EOS,Eosinophils,HEMATOLOGY,0.09,10^9/L,0,0.57,0.09,0.09,10^9/L,0,0.57,NORMAL,,12,WEEK 24,TREATMENT,2013-07-30T12:32,177
CDISCPILOT01,LB,CDISC005,272,GGT,Gamma Glutamyl Transferase,CHEMISTRY,11,U/L,5,50,11,11,U/L,5,50,NORMAL,,12,WEEK 24,TREATMENT,2013-07-30T12:32,177
CDISCPILOT01,LB,CDISC005,273,GLUC,Glucose,CHEMISTRY,88,mg/dL,50,250,4.88488,4.88488,mmol/L,2.8,13.9,NORMAL,,12,WEEK 24,TREATMENT,2013-07-30T12:32,177
CDISCPILOT01,LB,CDISC005,274,HCT,Hematocrit,HEMATOLOGY,38.0,%,34,48,0.38,0.38,,0.34,0.48,NORMAL,,12,WEEK 24,TREATMENT,2013-07-30T12:32,177
CDISCPILOT01,LB,CDISC005,275,HGB,Hemoglobin,HEMATOLOGY,12.9,g/dL,11.5,15.8,8.00574,8.00574,mmol/L,7.14,9.809999999999999,NORMAL,,12,WEEK 24,TREATMENT,2013-07-30T12:32,177
CDISCPILOT01,LB,CDISC005,276,K,Potassium,CHEMISTRY,4.4,mEq/L,3.4,5.4,4.4,4.399999999999999,mmol/L,3.4,5.399999999999999,NORMAL,,12,WEEK 24,TREATMENT,2013-07-30T12:32,177
CDISCPILOT01,LB,CDISC005,277,KETONES,Ketones,URINALYSIS,0,,,,0,0,,,,NORMAL,,12,WEEK 24,TREATMENT,2013-07-30T12:32,177
CDISCPILOT01,LB,CDISC005,278,LYM,Lymphocytes,HEMATOLOGY,1.63,10^9/L,0.8,3,1.63,1.63,10^9/L,0.8,3,NORMAL,,12,WEEK 24,TREATMENT,2013-07-30T12:32,177
CDISCPILOT01,LB,CDISC005,279,MCH,Ery. Mean Corpuscular Hemoglobin,HEMATOLOGY,31,pg,26,34,1.92386,1.92386,fmol,1.6,2.1,NORMAL,,12,WEEK 24,TREATMENT,2013-07-30T12:32,177
CDISCPILOT01,LB,CDISC005,280,MCHC,Ery. Mean Corpuscular HGB Concentration,HEMATOLOGY,34,g/dL,31,38,21.1004,21.1004,mmol/L,19,24,NORMAL,,12,WEEK 24,TREATMENT,2013-07-30T12:32,177
CDISCPILOT01,LB,CDISC005,281,MCV,Ery. Mean Corpuscular Volume,HEMATOLOGY,90,fL,80,100,90,90,fL,80,100,NORMAL,,12,WEEK 24,TREATMENT,2013-07-30T12:32,177
CDISCPILOT01,LB,CDISC005,282,MONO,Monocytes,HEMATOLOGY,0.34,10^9/L,0.12,0.92,0.34,0.34,10^9/L,0.12,0.92,NORMAL,,12,WEEK 24,TREATMENT,2013-07-30T12:32,177
CDISCPILOT01,LB,CDISC005,283,SODIUM,Sodium,CHEMISTRY,139,mEq/L,135,145,139,139,mmol/L,135,145,NORMAL,,12,WEEK 24,TREATMENT,2013-07-30T12:32,177
CDISCPILOT01,LB,CDISC005,284,PH,pH,URINALYSIS,7,,5,8,7,7,,5,8,NORMAL,,12,WEEK 24,TREATMENT,2013-07-30T12:32,177
CDISCPILOT01,LB,CDISC005,285,PHOS,Phosphate,CHEMISTRY,3.9,mg/dL,2.2,5.1,1.25931,1.25931,mmol/L,0.71,1.65,NORMAL,,12,WEEK 24,TREATMENT,2013-07-30T12:32,177
CDISCPILOT01,LB,CDISC005,286,PLAT,Platelets,HEMATOLOGY,370,10^9/L,130,394,370,370,10^9/L,130,394,NORMAL,,12,WEEK 24,TREATMENT,2013-07-30T12:32,177
CDISCPILOT01,LB,CDISC005,287,PROT,Protein,CHEMISTRY,7.0,g/dL,6,8,70,70,g/L,60,80,NORMAL,,12,WEEK 24,TREATMENT,2013-07-30T12:32,177
CDISCPILOT01,LB,CDISC005,288,RBC,Erythrocytes,HEMATOLOGY,4.20,10^12/L,3.9,5.5,4.2,4.199999999999999,10^12/L,3.9,5.5,NORMAL,,12,WEEK 24,TREATMENT,2013-07-30T12:32,177
CDISCPILOT01,LB,CDISC005,289,SPGRAV,Specific Gravity,URINALYSIS,1.017,,1.006,1.03,1.017,1.017,,1.006,1.03,NORMAL,,12,WEEK 24,TREATMENT,2013-07-30T12:32,177
CDISCPILOT01,LB,CDISC005,290,URATE,Urate,CHEMISTRY,3.2,mg/dL,2.5,7.5,190.336,190.336,umol/L,149,446,NORMAL,,12,WEEK 24,TREATMENT,2013-07-30T12:32,177
CDISCPILOT01,LB,CDISC005,291,UROBIL,Urobilinogen,URINALYSIS,0,,,,0,0,,,,NORMAL,,12,WEEK 24,TREATMENT,2013-07-30T12:32,177
CDISCPILOT01,LB,CDISC005,292,WBC,Leukocytes,HEMATOLOGY,5.53,10^9/L,3.8,10.7,5.53,5.529999999999999,10^9/L,3.8,10.7,NORMAL,,12,WEEK 24,TREATMENT,2013-07-30T12:32,177
CDISCPILOT01,LB,CDISC005,293,ALB,Albumin,CHEMISTRY,3.8,g/dL,3.5,4.6,38,38,g/L,35,46,NORMAL,,13,WEEK 26,TREATMENT,2013-08-06T12:00,184
CDISCPILOT01,LB,CDISC005,294,ALP,Alkaline Phosphatase,CHEMISTRY,53,U/L,35,115,53,53,U/L,35,115,NORMAL,,13,WEEK 26,TREATMENT,2013-08-06T12:00,184
CDISCPILOT01,LB,CDISC005,295,ALT,Alanine Aminotransferase,CHEMISTRY,14,U/L,6,32,14,14,U/L,6,32,NORMAL,,13,WEEK 26,TREATMENT,2013-08-06T12:00,184
CDISCPILOT01,LB,CDISC005,296,AST,Aspartate Aminotransferase,CHEMISTRY,17,U/L,9,34,17,17,U/L,9,34,NORMAL,,13,WEEK 26,TREATMENT,2013-08-06T12:00,184
CDISCPILOT01,LB,CDISC005,297,BASO,Basophils,HEMATOLOGY,0.03,10^9/L,0,0.2,0.03,0.03,10^9/L,0,0.2,NORMAL,,13,WEEK 26,TREATMENT,2013-08-06T12:00,184
CDISCPILOT01,LB,CDISC005,298,BILI,Bilirubin,CHEMISTRY,0.5,mg/dL,0.2,1.2,8.55,8.549999999999999,umol/L,3,21,NORMAL,,13,WEEK 26,TREATMENT,2013-08-06T12:00,184
CDISCPILOT01,LB,CDISC005,299,UREAN,Urea Nitrogen,CHEMISTRY,10,mg/dL,4,24,3.57,3.57,mmol/L,1.4,8.6,NORMAL,,13,WEEK 26,TREATMENT,2013-08-06T12:00,184
CDISCPILOT01,LB,CDISC005,300,CA,Calcium,CHEMISTRY,9.0,mg/dL,8.4,10.3,2.2455,2.2455,mmol/L,2.1,2.57,NORMAL,,13,WEEK 26,TREATMENT,2013-08-06T12:00,184
CDISCPILOT01,LB,CDISC005,301,CHOL,Cholesterol,CHEMISTRY,188,mg/dL,156,300,4.86168,4.86168,mmol/L,4.029999999999999,7.76,NORMAL,,13,WEEK 26,TREATMENT,2013-08-06T12:00,184
CDISCPILOT01,LB,CDISC005,302,CK,Creatine Kinase,CHEMISTRY,98,U/L,21,169,98,98,U/L,21,169,NORMAL,,13,WEEK 26,TREATMENT,2013-08-06T12:00,184
CDISCPILOT01,LB,CDISC005,303,CL,Chloride,CHEMISTRY,107,mEq/L,94,112,107,107,mmol/L,94,112,NORMAL,,13,WEEK 26,TREATMENT,2013-08-06T12:00,184
CDISCPILOT01,LB,CDISC005,304,CREAT,Creatinine,CHEMISTRY,0.9,mg/dL,0.7,1.4,79.56,79.55999999999999,umol/L,62,124,NORMAL,,13,WEEK 26,TREATMENT,2013-08-06T12:00,184
CDISCPILOT01,LB,CDISC005,305,EOS,Eosinophils,HEMATOLOGY,0.09,10^9/L,0,0.57,0.09,0.09,10^9/L,0,0.57,NORMAL,,13,WEEK 26,TREATMENT,2013-08-06T12:00,184
CDISCPILOT01,LB,CDISC005,306,GGT,Gamma Glutamyl Transferase,CHEMISTRY,13,U/L,5,50,13,13,U/L,5,50,NORMAL,,13,WEEK 26,TREATMENT,2013-08-06T12:00,184
CDISCPILOT01,LB,CDISC005,307,GLUC,Glucose,CHEMISTRY,95,mg/dL,50,250,5.27345,5.27345,mmol/L,2.8,13.9,NORMAL,,13,WEEK 26,TREATMENT,2013-08-06T12:00,184
CDISCPILOT01,LB,CDISC005,308,HCT,Hematocrit,HEMATOLOGY,37.0,%,34,48,0.37,0.37,,0.34,0.48,NORMAL,,13,WEEK 26,TREATMENT,2013-08-06T12:00,184
CDISCPILOT01,LB,CDISC005,309,HGB,Hemoglobin,HEMATOLOGY,12.4,g/dL,11.5,15.8,7.69544,7.69544,mmol/L,7.14,9.809999999999999,NORMAL,,13,WEEK 26,TREATMENT,2013-08-06T12:00,184
CDISCPILOT01,LB,CDISC005,310,K,Potassium,CHEMISTRY,4.1,mEq/L,3.4,5.4,4.1,4.1,mmol/L,3.4,5.399999999999999,NORMAL,,13,WEEK 26,TREATMENT,2013-08-06T12:00,184
CDISCPILOT01,LB,CDISC005,311,LYM,Lymphocytes,HEMATOLOGY,1.78,10^9/L,0.8,3,1.78,1.78,10^9/L,0.8,3,NORMAL,,13,WEEK 26,TREATMENT,2013-08-06T12:00,184
CDISCPILOT01,LB,CDISC005,312,MCH,Ery. Mean Corpuscular Hemoglobin,HEMATOLOGY,30,pg,26,34,1.8618,1.8618,fmol,1.6,2.1,NORMAL,,13,WEEK 26,TREATMENT,2013-08-06T12:00,184
CDISCPILOT01,LB,CDISC005,313,MCHC,Ery. Mean Corpuscular HGB Concentration,HEMATOLOGY,33,g/dL,31,38,20.4798,20.4798,mmol/L,19,24,NORMAL,,13,WEEK 26,TREATMENT,2013-08-06T12:00,184
CDISCPILOT01,LB,CDISC005,314,MCV,Ery. Mean Corpuscular Volume,HEMATOLOGY,91,fL,80,100,91,91,fL,80,100,NORMAL,,13,WEEK 26,TREATMENT,2013-08-06T12:00,184
CDISCPILOT01,LB,CDISC005,315,MONO,Monocytes,HEMATOLOGY,0.33,10^9/L,0.12,0.92,0.33,0.33,10^9/L,0.12,0.92,NORMAL,,13,WEEK 26,TREATMENT,2013-08-06T12:00,184
CDISCPILOT01,LB,CDISC005,316,SODIUM,Sodium,CHEMISTRY,143,mEq/L,135,145,143,143,mmol/L,135,145,NORMAL,,13,WEEK 26,TREATMENT,2013-08-06T12:00,184
CDISCPILOT01,LB,CDISC005,317,PHOS,Phosphate,CHEMISTRY,3.9,mg/dL,2.2,5.1,1.25931,1.25931,mmol/L,0.71,1.65,NORMAL,,13,WEEK 26,TREATMENT,2013-08-06T12:00,184
CDISCPILOT01,LB,CDISC005,318,PLAT,Platelets,HEMATOLOGY,315,10^9/L,130,394,315,315,10^9/L,130,394,NORMAL,,13,WEEK 26,TREATMENT,2013-08-06T12:00,184
CDISCPILOT01,LB,CDISC005,319,PROT,Protein,CHEMISTRY,6.5,g/dL,6,8,65,65,g/L,60,80,NORMAL,,13,WEEK 26,TREATMENT,2013-08-06T12:00,184
CDISCPILOT01,LB,CDISC005,320,RBC,Erythrocytes,HEMATOLOGY,4.10,10^12/L,3.9,5.5,4.1,4.1,10^12/L,3.9,5.5,NORMAL,,13,WEEK 26,TREATMENT,2013-08-06T12:00,184
CDISCPILOT01,LB,CDISC005,321,URATE,Urate,CHEMISTRY,3.3,mg/dL,2.5,7.5,196.284,196.284,umol/L,149,446,NORMAL,,13,WEEK 26,TREATMENT,2013-08-06T12:00,184
CDISCPILOT01,LB,CDISC005,322,WBC,Leukocytes,HEMATOLOGY,5.57,10^9/L,3.8,10.7,5.57,5.569999999999999,10^9/L,3.8,10.7,NORMAL,,13,WEEK 26,TREATMENT,2013-08-06T12:00,184
CDISCPILOT01,LB,CDISC008,1,ALB,Albumin,CHEMISTRY,3.8,g/dL,3.5,4.6,38,38,g/L,35,46,NORMAL,Y,1,SCREENING 1,SCREENING,2014-05-01T12:17,-10
CDISCPILOT01,LB,CDISC008,2,ALP,Alkaline Phosphatase,CHEMISTRY,76,U/L,35,115,76,76,U/L,35,115,NORMAL,Y,1,SCREENING 1,SCREENING,2014-05-01T12:17,-10
CDISCPILOT01,LB,CDISC008,3,ALT,Alanine Aminotransferase,CHEMISTRY,34,U/L,6,35,34,34,U/L,6,35,NORMAL,Y,1,SCREENING 1,SCREENING,2014-05-01T12:17,-10
CDISCPILOT01,LB,CDISC008,4,AST,Aspartate Aminotransferase,CHEMISTRY,31,U/L,11,36,31,31,U/L,11,36,NORMAL,Y,1,SCREENING 1,SCREENING,2014-05-01T12:17,-10
CDISCPILOT01,LB,CDISC008,5,BASO,Basophils,HEMATOLOGY,0.16,10^9/L,0,0.2,0.16,0.16,10^9/L,0,0.2,NORMAL,Y,1,SCREENING 1,SCREENING,2014-05-01T12:17,-10
CDISCPILOT01,LB,CDISC008,6,BILI,Bilirubin,CHEMISTRY,0.4,mg/dL,0.2,1.2,6.84,6.84,umol/L,3,21,NORMAL,Y,1,SCREENING 1,SCREENING,2014-05-01T12:17,-10
CDISCPILOT01,LB,CDISC008,7,UREAN,Urea Nitrogen,CHEMISTRY,18,mg/dL,4,24,6.426,6.425999999999999,mmol/L,1.4,8.6,NORMAL,Y,1,SCREENING 1,SCREENING,2014-05-01T12:17,-10
CDISCPILOT01,LB,CDISC008,8,CA,Calcium,CHEMISTRY,9.6,mg/dL,8.4,10.3,2.3952,2.3952,mmol/L,2.1,2.57,NORMAL,Y,1,SCREENING 1,SCREENING,2014-05-01T12:17,-10
CDISCPILOT01,LB,CDISC008,9,CHOL,Cholesterol,CHEMISTRY,157,mg/dL,149,286,4.06002,4.06002,mmol/L,3.85,7.4,NORMAL,Y,1,SCREENING 1,SCREENING,2014-05-01T12:17,-10
CDISCPILOT01,LB,CDISC008,10,CK,Creatine Kinase,CHEMISTRY,200,U/L,22,198,200,200,U/L,22,198,HIGH,Y,1,SCREENING 1,SCREENING,2014-05-01T12:17,-10
CDISCPILOT01,LB,CDISC008,11,CL,Chloride,CHEMISTRY,106,mEq/L,94,112,106,106,mmol/L,94,112,NORMAL,Y,1,SCREENING 1,SCREENING,2014-05-01T12:17,-10
CDISCPILOT01,LB,CDISC008,12,COLOR,Color,URINALYSIS,NORMAL,,,,NORMAL,,,,,NORMAL,Y,1,SCREENING 1,SCREENING,2014-05-01T12:17,-10
CDISCPILOT01,LB,CDISC008,13,CREAT,Creatinine,CHEMISTRY,1.0,mg/dL,0.8,1.6,88.4,88.39999999999998,umol/L,71,141,NORMAL,Y,1,SCREENING 1,SCREENING,2014-05-01T12:17,-10
CDISCPILOT01,LB,CDISC008,14,EOS,Eosinophils,HEMATOLOGY,0.04,10^9/L,0,0.57,0.04,0.03999999999999999,10^9/L,0,0.57,NORMAL,Y,1,SCREENING 1,SCREENING,2014-05-01T12:17,-10
CDISCPILOT01,LB,CDISC008,15,GGT,Gamma Glutamyl Transferase,CHEMISTRY,29,U/L,10,50,29,29,U/L,10,50,NORMAL,Y,1,SCREENING 1,SCREENING,2014-05-01T12:17,-10
CDISCPILOT01,LB,CDISC008,16,GLUC,Glucose,CHEMISTRY,139,mg/dL,50,250,7.71589,7.71589,mmol/L,2.8,13.9,NORMAL,Y,1,SCREENING 1,SCREENING,2014-05-01T12:17,-10
CDISCPILOT01,LB,CDISC008,17,HCT,Hematocrit,HEMATOLOGY,49.0,%,37,51,0.49,0.49,,0.37,0.51,NORMAL,Y,1,SCREENING 1,SCREENING,2014-05-01T12:17,-10
CDISCPILOT01,LB,CDISC008,18,HGB,Hemoglobin,HEMATOLOGY,14.7,g/dL,12.5,17,9.12282,9.12282,mmol/L,7.76,10.55,NORMAL,Y,1,SCREENING 1,SCREENING,2014-05-01T12:17,-10
CDISCPILOT01,LB,CDISC008,19,K,Potassium,CHEMISTRY,4.2,mEq/L,3.4,5.4,4.2,4.199999999999999,mmol/L,3.4,5.399999999999999,NORMAL,Y,1,SCREENING 1,SCREENING,2014-05-01T12:17,-10
CDISCPILOT01,LB,CDISC008,20,KETONES,Ketones,URINALYSIS,0,,,,0,0,,,,NORMAL,Y,1,SCREENING 1,SCREENING,2014-05-01T12:17,-10
CDISCPILOT01,LB,CDISC008,21,LYM,Lymphocytes,HEMATOLOGY,2.11,10^9/L,0.8,3,2.11,2.11,10^9/L,0.8,3,NORMAL,Y,1,SCREENING 1,SCREENING,2014-05-01T12:17,-10
CDISCPILOT01,LB,CDISC008,22,MCH,Ery. Mean Corpuscular Hemoglobin,HEMATOLOGY,28,pg,26,34,1.73768,1.73768,fmol,1.6,2.1,NORMAL,Y,1,SCREENING 1,SCREENING,2014-05-01T12:17,-10
CDISCPILOT01,LB,CDISC008,23,MCHC,Ery. Mean Corpuscular HGB Concentration,HEMATOLOGY,30,g/dL,31,38,18.618,18.618,mmol/L,19,24,LOW,Y,1,SCREENING 1,SCREENING,2014-05-01T12:17,-10
CDISCPILOT01,LB,CDISC008,24,MCV,Ery. Mean Corpuscular Volume,HEMATOLOGY,93,fL,80,100,93,93,fL,80,100,NORMAL,Y,1,SCREENING 1,SCREENING,2014-05-01T12:17,-10
CDISCPILOT01,LB,CDISC008,25,MONO,Monocytes,HEMATOLOGY,0.63,10^9/L,0.12,0.92,0.63,0.63,10^9/L,0.12,0.92,NORMAL,Y,1,SCREENING 1,SCREENING,2014-05-01T12:17,-10
CDISCPILOT01,LB,CDISC008,26,SODIUM,Sodium,CHEMISTRY,140,mEq/L,135,145,140,140,mmol/L,135,145,NORMAL,Y,1,SCREENING 1,SCREENING,2014-05-01T12:17,-10
CDISCPILOT01,LB,CDISC008,27,PH,pH,URINALYSIS,6,,5,8,6,6,,5,8,NORMAL,Y,1,SCREENING 1,SCREENING,2014-05-01T12:17,-10
CDISCPILOT01,LB,CDISC008,28,PHOS,Phosphate,CHEMISTRY,3.4,mg/dL,2.2,5.1,1.09786,1.09786,mmol/L,0.71,1.65,NORMAL,Y,1,SCREENING 1,SCREENING,2014-05-01T12:17,-10
CDISCPILOT01,LB,CDISC008,29,PLAT,Platelets,HEMATOLOGY,572,10^9/L,130,394,572,572,10^9/L,130,394,HIGH,Y,1,SCREENING 1,SCREENING,2014-05-01T12:17,-10
CDISCPILOT01,LB,CDISC008,30,PROT,Protein,CHEMISTRY,6.6,g/dL,6,8,66,66,g/L,60,80,NORMAL,Y,1,SCREENING 1,SCREENING,2014-05-01T12:17,-10
CDISCPILOT01,LB,CDISC008,31,RBC,Erythrocytes,HEMATOLOGY,5.20,10^12/L,4,5.8,5.2,5.199999999999999,10^12/L,4,5.8,NORMAL,Y,1,SCREENING 1,SCREENING,2014-05-01T12:17,-10
CDISCPILOT01,LB,CDISC008,32,SPGRAV,Specific Gravity,URINALYSIS,1.018,,1.006,1.03,1.018,1.018,,1.006,1.03,NORMAL,Y,1,SCREENING 1,SCREENING,2014-05-01T12:17,-10
CDISCPILOT01,LB,CDISC008,33,TSH,Thyrotropin,OTHER,.09,mIU/L,.32,5,.09,0.09,mU/L,0.32,5,LOW,Y,1,SCREENING 1,SCREENING,2014-05-01T12:17,-10
CDISCPILOT01,LB,CDISC008,34,URATE,Urate,CHEMISTRY,4.4,mg/dL,2.5,7.5,261.712,261.712,umol/L,149,446,NORMAL,Y,1,SCREENING 1,SCREENING,2014-05-01T12:17,-10
CDISCPILOT01,LB,CDISC008,35,UROBIL,Urobilinogen,URINALYSIS,0,,,,0,0,,,,NORMAL,Y,1,SCREENING 1,SCREENING,2014-05-01T12:17,-10
CDISCPILOT01,LB,CDISC008,36,VITB12,Vitamin B12,OTHER,597,ng/L,200,900,440.4666,440.4666,pmol/L,148,664,NORMAL,Y,1,SCREENING 1,SCREENING,2014-05-01T12:17,-10
CDISCPILOT01,LB,CDISC008,37,WBC,Leukocytes,HEMATOLOGY,9.40,10^9/L,3.8,10.7,9.4,9.399999999999999,10^9/L,3.8,10.7,NORMAL,Y,1,SCREENING 1,SCREENING,2014-05-01T12:17,-10
CDISCPILOT01,LB,CDISC008,38,BASO,Basophils,HEMATOLOGY,0.00,10^9/L,0,0.2,0,0,10^9/L,0,0.2,NORMAL,,1.01,SCREENING 1: UNSCHEDULED 01,SCREENING,2014-05-03T15:00,-8
CDISCPILOT01,LB,CDISC008,39,EOS,Eosinophils,HEMATOLOGY,0.08,10^9/L,0,0.57,0.08,0.08,10^9/L,0,0.57,NORMAL,,1.01,SCREENING 1: UNSCHEDULED 01,SCREENING,2014-05-03T15:00,-8
CDISCPILOT01,LB,CDISC008,40,HCT,Hematocrit,HEMATOLOGY,44.0,%,37,51,0.44,0.44,,0.37,0.51,NORMAL,,1.01,SCREENING 1: UNSCHEDULED 01,SCREENING,2014-05-03T15:00,-8
CDISCPILOT01,LB,CDISC008,41,HGB,Hemoglobin,HEMATOLOGY,13.7,g/dL,12.5,17,8.50222,8.50222,mmol/L,7.76,10.55,NORMAL,,1.01,SCREENING 1: UNSCHEDULED 01,SCREENING,2014-05-03T15:00,-8
CDISCPILOT01,LB,CDISC008,42,LYM,Lymphocytes,HEMATOLOGY,1.59,10^9/L,0.8,3,1.59,1.59,10^9/L,0.8,3,NORMAL,,1.01,SCREENING 1: UNSCHEDULED 01,SCREENING,2014-05-03T15:00,-8
CDISCPILOT01,LB,CDISC008,43,MCH,Ery. Mean Corpuscular Hemoglobin,HEMATOLOGY,29,pg,26,34,1.79974,1.79974,fmol,1.6,2.1,NORMAL,,1.01,SCREENING 1: UNSCHEDULED 01,SCREENING,2014-05-03T15:00,-8
CDISCPILOT01,LB,CDISC008,44,MCHC,Ery. Mean Corpuscular HGB Concentration,HEMATOLOGY,31,g/dL,31,38,19.2386,19.2386,mmol/L,19,24,NORMAL,,1.01,SCREENING 1: UNSCHEDULED 01,SCREENING,2014-05-03T15:00,-8
CDISCPILOT01,LB,CDISC008,45,MCV,Ery. Mean Corpuscular Volume,HEMATOLOGY,91,fL,80,100,91,91,fL,80,100,NORMAL,,1.01,SCREENING 1: UNSCHEDULED 01,SCREENING,2014-05-03T15:00,-8
CDISCPILOT01,LB,CDISC008,46,MONO,Monocytes,HEMATOLOGY,0.72,10^9/L,0.12,0.92,0.72,0.72,10^9/L,0.12,0.92,NORMAL,,1.01,SCREENING 1: UNSCHEDULED 01,SCREENING,2014-05-03T15:00,-8
CDISCPILOT01,LB,CDISC008,47,PLAT,Platelets,HEMATOLOGY,495,10^9/L,130,394,495,495,10^9/L,130,394,HIGH,,1.01,SCREENING 1: UNSCHEDULED 01,SCREENING,2014-05-03T15:00,-8
CDISCPILOT01,LB,CDISC008,48,RBC,Erythrocytes,HEMATOLOGY,4.80,10^12/L,4,5.8,4.8,4.8,10^12/L,4,5.8,NORMAL,,1.01,SCREENING 1: UNSCHEDULED 01,SCREENING,2014-05-03T15:00,-8
CDISCPILOT01,LB,CDISC008,49,TSH,Thyrotropin,OTHER,.12,mIU/L,.32,5,.12,0.12,mU/L,0.32,5,LOW,,1.01,SCREENING 1: UNSCHEDULED 01,SCREENING,2014-05-03T15:00,-8
CDISCPILOT01,LB,CDISC008,50,WBC,Leukocytes,HEMATOLOGY,7.95,10^9/L,3.8,10.7,7.95,7.95,10^9/L,3.8,10.7,NORMAL,,1.01,SCREENING 1: UNSCHEDULED 01,SCREENING,2014-05-03T15:00,-8
CDISCPILOT01,LB,CDISC008,51,ALB,Albumin,CHEMISTRY,3.8,g/dL,3.5,4.6,38,38,g/L,35,46,NORMAL,,4,WEEK 2,TREATMENT,2014-05-25T09:16,15
CDISCPILOT01,LB,CDISC008,52,ALP,Alkaline Phosphatase,CHEMISTRY,81,U/L,35,115,81,81,U/L,35,115,NORMAL,,4,WEEK 2,TREATMENT,2014-05-25T09:16,15
CDISCPILOT01,LB,CDISC008,53,ALT,Alanine Aminotransferase,CHEMISTRY,33,U/L,6,35,33,33,U/L,6,35,NORMAL,,4,WEEK 2,TREATMENT,2014-05-25T09:16,15
CDISCPILOT01,LB,CDISC008,54,ANISO,Anisocytes,HEMATOLOGY,1,,,,1,1,,,,ABNORMAL,,4,WEEK 2,TREATMENT,2014-05-25T09:16,15
CDISCPILOT01,LB,CDISC008,55,AST,Aspartate Aminotransferase,CHEMISTRY,25,U/L,11,36,25,25,U/L,11,36,NORMAL,,4,WEEK 2,TREATMENT,2014-05-25T09:16,15
CDISCPILOT01,LB,CDISC008,56,BASO,Basophils,HEMATOLOGY,0.09,10^9/L,0,0.2,0.09,0.09,10^9/L,0,0.2,NORMAL,,4,WEEK 2,TREATMENT,2014-05-25T09:16,15
CDISCPILOT01,LB,CDISC008,57,BILI,Bilirubin,CHEMISTRY,0.5,mg/dL,0.2,1.2,8.55,8.549999999999999,umol/L,3,21,NORMAL,,4,WEEK 2,TREATMENT,2014-05-25T09:16,15
CDISCPILOT01,LB,CDISC008,58,UREAN,Urea Nitrogen,CHEMISTRY,16,mg/dL,4,24,5.712,5.712,mmol/L,1.4,8.6,NORMAL,,4,WEEK 2,TREATMENT,2014-05-25T09:16,15
CDISCPILOT01,LB,CDISC008,59,CA,Calcium,CHEMISTRY,9.5,mg/dL,8.4,10.3,2.37025,2.37025,mmol/L,2.1,2.57,NORMAL,,4,WEEK 2,TREATMENT,2014-05-25T09:16,15
CDISCPILOT01,LB,CDISC008,60,CHOL,Cholesterol,CHEMISTRY,158,mg/dL,149,286,4.08588,4.08588,mmol/L,3.85,7.4,NORMAL,,4,WEEK 2,TREATMENT,2014-05-25T09:16,15
CDISCPILOT01,LB,CDISC008,61,CK,Creatine Kinase,CHEMISTRY,170,U/L,22,198,170,170,U/L,22,198,NORMAL,,4,WEEK 2,TREATMENT,2014-05-25T09:16,15
CDISCPILOT01,LB,CDISC008,62,CL,Chloride,CHEMISTRY,100,mEq/L,94,112,100,100,mmol/L,94,112,NORMAL,,4,WEEK 2,TREATMENT,2014-05-25T09:16,15
CDISCPILOT01,LB,CDISC008,63,COLOR,Color,URINALYSIS,NORMAL,,,,NORMAL,,,,,NORMAL,,4,WEEK 2,TREATMENT,2014-05-25T09:16,15
CDISCPILOT01,LB,CDISC008,64,CREAT,Creatinine,CHEMISTRY,0.9,mg/dL,0.8,1.6,79.56,79.55999999999999,umol/L,71,141,NORMAL,,4,WEEK 2,TREATMENT,2014-05-25T09:16,15
CDISCPILOT01,LB,CDISC008,65,EOS,Eosinophils,HEMATOLOGY,0.07,10^9/L,0,0.57,0.07,0.07,10^9/L,0,0.57,NORMAL,,4,WEEK 2,TREATMENT,2014-05-25T09:16,15
CDISCPILOT01,LB,CDISC008,66,GGT,Gamma Glutamyl Transferase,CHEMISTRY,30,U/L,10,50,30,30,U/L,10,50,NORMAL,,4,WEEK 2,TREATMENT,2014-05-25T09:16,15
CDISCPILOT01,LB,CDISC008,67,GLUC,Glucose,CHEMISTRY,141,mg/dL,50,250,7.82691,7.82691,mmol/L,2.8,13.9,NORMAL,,4,WEEK 2,TREATMENT,2014-05-25T09:16,15
CDISCPILOT01,LB,CDISC008,68,HCT,Hematocrit,HEMATOLOGY,48.0,%,37,51,0.48,0.48,,0.37,0.51,NORMAL,,4,WEEK 2,TREATMENT,2014-05-25T09:16,15
CDISCPILOT01,LB,CDISC008,69,HGB,Hemoglobin,HEMATOLOGY,15.0,g/dL,12.5,17,9.309,9.309,mmol/L,7.76,10.55,NORMAL,,4,WEEK 2,TREATMENT,2014-05-25T09:16,15
CDISCPILOT01,LB,CDISC008,70,K,Potassium,CHEMISTRY,4.3,mEq/L,3.4,5.4,4.3,4.3,mmol/L,3.4,5.399999999999999,NORMAL,,4,WEEK 2,TREATMENT,2014-05-25T09:16,15
CDISCPILOT01,LB,CDISC008,71,KETONES,Ketones,URINALYSIS,0,,,,0,0,,,,NORMAL,,4,WEEK 2,TREATMENT,2014-05-25T09:16,15
CDISCPILOT01,LB,CDISC008,72,LYM,Lymphocytes,HEMATOLOGY,2.09,10^9/L,0.8,3,2.09,2.09,10^9/L,0.8,3,NORMAL,,4,WEEK 2,TREATMENT,2014-05-25T09:16,15
CDISCPILOT01,LB,CDISC008,73,MCH,Ery. Mean Corpuscular Hemoglobin,HEMATOLOGY,30,pg,26,34,1.8618,1.8618,fmol,1.6,2.1,NORMAL,,4,WEEK 2,TREATMENT,2014-05-25T09:16,15
CDISCPILOT01,LB,CDISC008,74,MCHC,Ery. Mean Corpuscular HGB Concentration,HEMATOLOGY,31,g/dL,31,38,19.2386,19.2386,mmol/L,19,24,NORMAL,,4,WEEK 2,TREATMENT,2014-05-25T09:16,15
CDISCPILOT01,LB,CDISC008,75,MCV,Ery. Mean Corpuscular Volume,HEMATOLOGY,96,fL,80,100,96,96,fL,80,100,NORMAL,,4,WEEK 2,TREATMENT,2014-05-25T09:16,15
CDISCPILOT01,LB,CDISC008,76,MONO,Monocytes,HEMATOLOGY,0.61,10^9/L,0.12,0.92,0.61,0.61,10^9/L,0.12,0.92,NORMAL,,4,WEEK 2,TREATMENT,2014-05-25T09:16,15
CDISCPILOT01,LB,CDISC008,77,SODIUM,Sodium,CHEMISTRY,136,mEq/L,135,145,136,136,mmol/L,135,145,NORMAL,,4,WEEK 2,TREATMENT,2014-05-25T09:16,15
CDISCPILOT01,LB,CDISC008,78,PH,pH,URINALYSIS,6,,5,8,6,6,,5,8,NORMAL,,4,WEEK 2,TREATMENT,2014-05-25T09:16,15
CDISCPILOT01,LB,CDISC008,79,PHOS,Phosphate,CHEMISTRY,3.5,mg/dL,2.2,5.1,1.13015,1.13015,mmol/L,0.71,1.65,NORMAL,,4,WEEK 2,TREATMENT,2014-05-25T09:16,15
CDISCPILOT01,LB,CDISC008,80,PLAT,Platelets,HEMATOLOGY,500,10^9/L,130,394,500,500,10^9/L,130,394,HIGH,,4,WEEK 2,TREATMENT,2014-05-25T09:16,15
CDISCPILOT01,LB,CDISC008,81,POIKILO,Poikilocytes,HEMATOLOGY,1,,,,1,1,,,,ABNORMAL,,4,WEEK 2,TREATMENT,2014-05-25T09:16,15
CDISCPILOT01,LB,CDISC008,82,PROT,Protein,CHEMISTRY,6.6,g/dL,6,8,66,66,g/L,60,80,NORMAL,,4,WEEK 2,TREATMENT,2014-05-25T09:16,15
CDISCPILOT01,LB,CDISC008,83,RBC,Erythrocytes,HEMATOLOGY,5.00,10^12/L,4,5.8,5,5,10^12/L,4,5.8,NORMAL,,4,WEEK 2,TREATMENT,2014-05-25T09:16,15
CDISCPILOT01,LB,CDISC008,84,SPGRAV,Specific Gravity,URINALYSIS,1.017,,1.006,1.03,1.017,1.017,,1.006,1.03,NORMAL,,4,WEEK 2,TREATMENT,2014-05-25T09:16,15
CDISCPILOT01,LB,CDISC008,85,URATE,Urate,CHEMISTRY,4.0,mg/dL,2.5,7.5,237.92,237.92,umol/L,149,446,NORMAL,,4,WEEK 2,TREATMENT,2014-05-25T09:16,15
CDISCPILOT01,LB,CDISC008,86,UROBIL,Urobilinogen,URINALYSIS,0,,,,0,0,,,,NORMAL,,4,WEEK 2,TREATMENT,2014-05-25T09:16,15
CDISCPILOT01,LB,CDISC008,87,WBC,Leukocytes,HEMATOLOGY,7.09,10^9/L,3.8,10.7,7.09,7.09,10^9/L,3.8,10.7,NORMAL,,4,WEEK 2,TREATMENT,2014-05-25T09:16,15
CDISCPILOT01,LB,CDISC008,88,ALB,Albumin,CHEMISTRY,3.6,g/dL,3.5,4.6,36,36,g/L,35,46,NORMAL,,5,WEEK 4,TREATMENT,2014-06-11T11:00,32
CDISCPILOT01,LB,CDISC008,89,ALP,Alkaline Phosphatase,CHEMISTRY,84,U/L,35,115,84,84,U/L,35,115,NORMAL,,5,WEEK 4,TREATMENT,2014-06-11T11:00,32
CDISCPILOT01,LB,CDISC008,90,ALT,Alanine Aminotransferase,CHEMISTRY,44,U/L,6,35,44,44,U/L,6,35,HIGH,,5,WEEK 4,TREATMENT,2014-06-11T11:00,32
CDISCPILOT01,LB,CDISC008,91,AST,Aspartate Aminotransferase,CHEMISTRY,33,U/L,11,36,33,33,U/L,11,36,NORMAL,,5,WEEK 4,TREATMENT,2014-06-11T11:00,32
CDISCPILOT01,LB,CDISC008,92,BASO,Basophils,HEMATOLOGY,0.00,10^9/L,0,0.2,0,0,10^9/L,0,0.2,NORMAL,,5,WEEK 4,TREATMENT,2014-06-11T11:00,32
CDISCPILOT01,LB,CDISC008,93,BILI,Bilirubin,CHEMISTRY,0.6,mg/dL,0.2,1.2,10.26,10.26,umol/L,3,21,NORMAL,,5,WEEK 4,TREATMENT,2014-06-11T11:00,32
CDISCPILOT01,LB,CDISC008,94,UREAN,Urea Nitrogen,CHEMISTRY,18,mg/dL,4,24,6.426,6.425999999999999,mmol/L,1.4,8.6,NORMAL,,5,WEEK 4,TREATMENT,2014-06-11T11:00,32
CDISCPILOT01,LB,CDISC008,95,CA,Calcium,CHEMISTRY,9.4,mg/dL,8.4,10.3,2.3453,2.3453,mmol/L,2.1,2.57,NORMAL,,5,WEEK 4,TREATMENT,2014-06-11T11:00,32
CDISCPILOT01,LB,CDISC008,96,CHOL,Cholesterol,CHEMISTRY,158,mg/dL,149,286,4.08588,4.08588,mmol/L,3.85,7.4,NORMAL,,5,WEEK 4,TREATMENT,2014-06-11T11:00,32
CDISCPILOT01,LB,CDISC008,97,CK,Creatine Kinase,CHEMISTRY,158,U/L,22,198,158,158,U/L,22,198,NORMAL,,5,WEEK 4,TREATMENT,2014-06-11T11:00,32
CDISCPILOT01,LB,CDISC008,98,CL,Chloride,CHEMISTRY,101,mEq/L,94,112,101,101,mmol/L,94,112,NORMAL,,5,WEEK 4,TREATMENT,2014-06-11T11:00,32
CDISCPILOT01,LB,CDISC008,99,CREAT,Creatinine,CHEMISTRY,1.0,mg/dL,0.8,1.6,88.4,88.39999999999998,umol/L,71,141,NORMAL,,5,WEEK 4,TREATMENT,2014-06-11T11:00,32
CDISCPILOT01,LB,CDISC008,100,EOS,Eosinophils,HEMATOLOGY,0.00,10^9/L,0,0.57,0,0,10^9/L,0,0.57,NORMAL,,5,WEEK 4,TREATMENT,2014-06-11T11:00,32
CDISCPILOT01,LB,CDISC008,101,GGT,Gamma Glutamyl Transferase,CHEMISTRY,33,U/L,10,50,33,33,U/L,10,50,NORMAL,,5,WEEK 4,TREATMENT,2014-06-11T11:00,32
CDISCPILOT01,LB,CDISC008,102,GLUC,Glucose,CHEMISTRY,186,mg/dL,50,250,10.32486,10.32486,mmol/L,2.8,13.9,NORMAL,,5,WEEK 4,TREATMENT,2014-06-11T11:00,32
CDISCPILOT01,LB,CDISC008,103,HCT,Hematocrit,HEMATOLOGY,47.0,%,37,51,0.47,0.47,,0.37,0.51,NORMAL,,5,WEEK 4,TREATMENT,2014-06-11T11:00,32
CDISCPILOT01,LB,CDISC008,104,HGB,Hemoglobin,HEMATOLOGY,14.6,g/dL,12.5,17,9.06076,9.060759999999998,mmol/L,7.76,10.55,NORMAL,,5,WEEK 4,TREATMENT,2014-06-11T11:00,32
CDISCPILOT01,LB,CDISC008,105,K,Potassium,CHEMISTRY,4.2,mEq/L,3.4,5.4,4.2,4.199999999999999,mmol/L,3.4,5.399999999999999,NORMAL,,5,WEEK 4,TREATMENT,2014-06-11T11:00,32
CDISCPILOT01,LB,CDISC008,106,LYM,Lymphocytes,HEMATOLOGY,2.75,10^9/L,0.8,3,2.75,2.75,10^9/L,0.8,3,NORMAL,,5,WEEK 4,TREATMENT,2014-06-11T11:00,32
CDISCPILOT01,LB,CDISC008,107,MCH,Ery. Mean Corpuscular Hemoglobin,HEMATOLOGY,29,pg,26,34,1.79974,1.79974,fmol,1.6,2.1,NORMAL,,5,WEEK 4,TREATMENT,2014-06-11T11:00,32
CDISCPILOT01,LB,CDISC008,108,MCHC,Ery. Mean Corpuscular HGB Concentration,HEMATOLOGY,31,g/dL,31,38,19.2386,19.2386,mmol/L,19,24,NORMAL,,5,WEEK 4,TREATMENT,2014-06-11T11:00,32
CDISCPILOT01,LB,CDISC008,109,MCV,Ery. Mean Corpuscular Volume,HEMATOLOGY,93,fL,80,100,93,93,fL,80,100,NORMAL,,5,WEEK 4,TREATMENT,2014-06-11T11:00,32
CDISCPILOT01,LB,CDISC008,110,MONO,Monocytes,HEMATOLOGY,0.65,10^9/L,0.12,0.92,0.65,0.6499999999999999,10^9/L,0.12,0.92,NORMAL,,5,WEEK 4,TREATMENT,2014-06-11T11:00,32
CDISCPILOT01,LB,CDISC008,111,SODIUM,Sodium,CHEMISTRY,138,mEq/L,135,145,138,138,mmol/L,135,145,NORMAL,,5,WEEK 4,TREATMENT,2014-06-11T11:00,32
CDISCPILOT01,LB,CDISC008,112,PHOS,Phosphate,CHEMISTRY,3.9,mg/dL,2.2,5.1,1.25931,1.25931,mmol/L,0.71,1.65,NORMAL,,5,WEEK 4,TREATMENT,2014-06-11T11:00,32
CDISCPILOT01,LB,CDISC008,113,PLAT,Platelets,HEMATOLOGY,416,10^9/L,130,394,416,416,10^9/L,130,394,HIGH,,5,WEEK 4,TREATMENT,2014-06-11T11:00,32
CDISCPILOT01,LB,CDISC008,114,PROT,Protein,CHEMISTRY,6.7,g/dL,6,8,67,67,g/L,60,80,NORMAL,,5,WEEK 4,TREATMENT,2014-06-11T11:00,32
CDISCPILOT01,LB,CDISC008,115,RBC,Erythrocytes,HEMATOLOGY,5.00,10^12/L,4,5.8,5,5,10^12/L,4,5.8,NORMAL,,5,WEEK 4,TREATMENT,2014-06-11T11:00,32
CDISCPILOT01,LB,CDISC008,116,URATE,Urate,CHEMISTRY,3.9,mg/dL,2.5,7.5,231.972,231.972,umol/L,149,446,NORMAL,,5,WEEK 4,TREATMENT,2014-06-11T11:00,32
CDISCPILOT01,LB,CDISC008,117,WBC,Leukocytes,HEMATOLOGY,8.09,10^9/L,3.8,10.7,8.09,8.09,10^9/L,3.8,10.7,NORMAL,,5,WEEK 4,TREATMENT,2014-06-11T11:00,32
CDISCPILOT01,LB,CDISC008,118,ALB,Albumin,CHEMISTRY,3.8,g/dL,3.5,4.6,38,38,g/L,35,46,NORMAL,,7,WEEK 6,TREATMENT,2014-06-25T14:15,46
CDISCPILOT01,LB,CDISC008,119,ALP,Alkaline Phosphatase,CHEMISTRY,87,U/L,35,115,87,87,U/L,35,115,NORMAL,,7,WEEK 6,TREATMENT,2014-06-25T14:15,46
CDISCPILOT01,LB,CDISC008,120,ALT,Alanine Aminotransferase,CHEMISTRY,43,U/L,6,35,43,43,U/L,6,35,HIGH,,7,WEEK 6,TREATMENT,2014-06-25T14:15,46
CDISCPILOT01,LB,CDISC008,121,AST,Aspartate Aminotransferase,CHEMISTRY,30,U/L,11,36,30,30,U/L,11,36,NORMAL,,7,WEEK 6,TREATMENT,2014-06-25T14:15,46
CDISCPILOT01,LB,CDISC008,122,BASO,Basophils,HEMATOLOGY,0.07,10^9/L,0,0.2,0.07,0.07,10^9/L,0,0.2,NORMAL,,7,WEEK 6,TREATMENT,2014-06-25T14:15,46
CDISCPILOT01,LB,CDISC008,123,BILI,Bilirubin,CHEMISTRY,0.5,mg/dL,0.2,1.2,8.55,8.549999999999999,umol/L,3,21,NORMAL,,7,WEEK 6,TREATMENT,2014-06-25T14:15,46
CDISCPILOT01,LB,CDISC008,124,UREAN,Urea Nitrogen,CHEMISTRY,20,mg/dL,4,24,7.14,7.14,mmol/L,1.4,8.6,NORMAL,,7,WEEK 6,TREATMENT,2014-06-25T14:15,46
CDISCPILOT01,LB,CDISC008,125,CA,Calcium,CHEMISTRY,9.8,mg/dL,8.4,10.3,2.4451,2.4451,mmol/L,2.1,2.57,NORMAL,,7,WEEK 6,TREATMENT,2014-06-25T14:15,46
CDISCPILOT01,LB,CDISC008,126,CHOL,Cholesterol,CHEMISTRY,161,mg/dL,149,286,4.16346,4.16346,mmol/L,3.85,7.4,NORMAL,,7,WEEK 6,TREATMENT,2014-06-25T14:15,46
CDISCPILOT01,LB,CDISC008,127,CK,Creatine Kinase,CHEMISTRY,174,U/L,22,198,174,174,U/L,22,198,NORMAL,,7,WEEK 6,TREATMENT,2014-06-25T14:15,46
CDISCPILOT01,LB,CDISC008,128,CL,Chloride,CHEMISTRY,106,mEq/L,94,112,106,106,mmol/L,94,112,NORMAL,,7,WEEK 6,TREATMENT,2014-06-25T14:15,46
CDISCPILOT01,LB,CDISC008,129,CREAT,Creatinine,CHEMISTRY,1.0,mg/dL,0.8,1.6,88.4,88.39999999999998,umol/L,71,141,NORMAL,,7,WEEK 6,TREATMENT,2014-06-25T14:15,46
CDISCPILOT01,LB,CDISC008,130,EOS,Eosinophils,HEMATOLOGY,0.13,10^9/L,0,0.57,0.13,0.13,10^9/L,0,0.57,NORMAL,,7,WEEK 6,TREATMENT,2014-06-25T14:15,46
CDISCPILOT01,LB,CDISC008,131,GGT,Gamma Glutamyl Transferase,CHEMISTRY,32,U/L,10,50,32,32,U/L,10,50,NORMAL,,7,WEEK 6,TREATMENT,2014-06-25T14:15,46
CDISCPILOT01,LB,CDISC008,132,GLUC,Glucose,CHEMISTRY,168,mg/dL,50,250,9.32568,9.325679999999998,mmol/L,2.8,13.9,NORMAL,,7,WEEK 6,TREATMENT,2014-06-25T14:15,46
CDISCPILOT01,LB,CDISC008,133,HCT,Hematocrit,HEMATOLOGY,46.0,%,37,51,0.46,0.46,,0.37,0.51,NORMAL,,7,WEEK 6,TREATMENT,2014-06-25T14:15,46
CDISCPILOT01,LB,CDISC008,134,HGB,Hemoglobin,HEMATOLOGY,14.8,g/dL,12.5,17,9.18488,9.18488,mmol/L,7.76,10.55,NORMAL,,7,WEEK 6,TREATMENT,2014-06-25T14:15,46
CDISCPILOT01,LB,CDISC008,135,K,Potassium,CHEMISTRY,4.4,mEq/L,3.4,5.4,4.4,4.399999999999999,mmol/L,3.4,5.399999999999999,NORMAL,,7,WEEK 6,TREATMENT,2014-06-25T14:15,46
CDISCPILOT01,LB,CDISC008,136,LYM,Lymphocytes,HEMATOLOGY,1.33,10^9/L,0.8,3,1.33,1.33,10^9/L,0.8,3,NORMAL,,7,WEEK 6,TREATMENT,2014-06-25T14:15,46
CDISCPILOT01,LB,CDISC008,137,MCH,Ery. Mean Corpuscular Hemoglobin,HEMATOLOGY,30,pg,26,34,1.8618,1.8618,fmol,1.6,2.1,NORMAL,,7,WEEK 6,TREATMENT,2014-06-25T14:15,46
CDISCPILOT01,LB,CDISC008,138,MCHC,Ery. Mean Corpuscular HGB Concentration,HEMATOLOGY,32,g/dL,31,38,19.8592,19.8592,mmol/L,19,24,NORMAL,,7,WEEK 6,TREATMENT,2014-06-25T14:15,46
CDISCPILOT01,LB,CDISC008,139,MCV,Ery. Mean Corpuscular Volume,HEMATOLOGY,92,fL,80,100,92,92,fL,80,100,NORMAL,,7,WEEK 6,TREATMENT,2014-06-25T14:15,46
CDISCPILOT01,LB,CDISC008,140,MONO,Monocytes,HEMATOLOGY,0.58,10^9/L,0.12,0.92,0.58,0.58,10^9/L,0.12,0.92,NORMAL,,7,WEEK 6,TREATMENT,2014-06-25T14:15,46
CDISCPILOT01,LB,CDISC008,141,SODIUM,Sodium,CHEMISTRY,139,mEq/L,135,145,139,139,mmol/L,135,145,NORMAL,,7,WEEK 6,TREATMENT,2014-06-25T14:15,46
CDISCPILOT01,LB,CDISC008,142,PHOS,Phosphate,CHEMISTRY,3.7,mg/dL,2.2,5.1,1.19473,1.19473,mmol/L,0.71,1.65,NORMAL,,7,WEEK 6,TREATMENT,2014-06-25T14:15,46
CDISCPILOT01,LB,CDISC008,143,PLAT,Platelets,HEMATOLOGY,487,10^9/L,130,394,487,487,10^9/L,130,394,HIGH,,7,WEEK 6,TREATMENT,2014-06-25T14:15,46
CDISCPILOT01,LB,CDISC008,144,PROT,Protein,CHEMISTRY,6.7,g/dL,6,8,67,67,g/L,60,80,NORMAL,,7,WEEK 6,TREATMENT,2014-06-25T14:15,46
CDISCPILOT01,LB,CDISC008,145,RBC,Erythrocytes,HEMATOLOGY,5.00,10^12/L,4,5.8,5,5,10^12/L,4,5.8,NORMAL,,7,WEEK 6,TREATMENT,2014-06-25T14:15,46
CDISCPILOT01,LB,CDISC008,146,URATE,Urate,CHEMISTRY,4.0,mg/dL,2.5,7.5,237.92,237.92,umol/L,149,446,NORMAL,,7,WEEK 6,TREATMENT,2014-06-25T14:15,46
CDISCPILOT01,LB,CDISC008,147,WBC,Leukocytes,HEMATOLOGY,7.47,10^9/L,3.8,10.7,7.47,7.47,10^9/L,3.8,10.7,NORMAL,,7,WEEK 6,TREATMENT,2014-06-25T14:15,46
CDISCPILOT01,LB,CDISC008,148,ALB,Albumin,CHEMISTRY,3.7,g/dL,3.5,4.6,37,37,g/L,35,46,NORMAL,,8,WEEK 8,TREATMENT,2014-07-09T11:15,60
CDISCPILOT01,LB,CDISC008,149,ALP,Alkaline Phosphatase,CHEMISTRY,80,U/L,35,115,80,80,U/L,35,115,NORMAL,,8,WEEK 8,TREATMENT,2014-07-09T11:15,60
CDISCPILOT01,LB,CDISC008,150,ALT,Alanine Aminotransferase,CHEMISTRY,48,U/L,6,35,48,48,U/L,6,35,HIGH,,8,WEEK 8,TREATMENT,2014-07-09T11:15,60
CDISCPILOT01,LB,CDISC008,151,AST,Aspartate Aminotransferase,CHEMISTRY,37,U/L,11,36,37,37,U/L,11,36,HIGH,,8,WEEK 8,TREATMENT,2014-07-09T11:15,60
CDISCPILOT01,LB,CDISC008,152,BASO,Basophils,HEMATOLOGY,0.00,10^9/L,0,0.2,0,0,10^9/L,0,0.2,NORMAL,,8,WEEK 8,TREATMENT,2014-07-09T11:15,60
CDISCPILOT01,LB,CDISC008,153,BILI,Bilirubin,CHEMISTRY,0.7,mg/dL,0.2,1.2,11.97,11.97,umol/L,3,21,NORMAL,,8,WEEK 8,TREATMENT,2014-07-09T11:15,60
CDISCPILOT01,LB,CDISC008,154,UREAN,Urea Nitrogen,CHEMISTRY,15,mg/dL,4,24,5.355,5.355,mmol/L,1.4,8.6,NORMAL,,8,WEEK 8,TREATMENT,2014-07-09T11:15,60
CDISCPILOT01,LB,CDISC008,155,CA,Calcium,CHEMISTRY,9.4,mg/dL,8.4,10.3,2.3453,2.3453,mmol/L,2.1,2.57,NORMAL,,8,WEEK 8,TREATMENT,2014-07-09T11:15,60
CDISCPILOT01,LB,CDISC008,156,CHOL,Cholesterol,CHEMISTRY,156,mg/dL,149,286,4.03416,4.03416,mmol/L,3.85,7.4,NORMAL,,8,WEEK 8,TREATMENT,2014-07-09T11:15,60
CDISCPILOT01,LB,CDISC008,157,CK,Creatine Kinase,CHEMISTRY,178,U/L,22,198,178,178,U/L,22,198,NORMAL,,8,WEEK 8,TREATMENT,2014-07-09T11:15,60
CDISCPILOT01,LB,CDISC008,158,CL,Chloride,CHEMISTRY,101,mEq/L,94,112,101,101,mmol/L,94,112,NORMAL,,8,WEEK 8,TREATMENT,2014-07-09T11:15,60
CDISCPILOT01,LB,CDISC008,159,CREAT,Creatinine,CHEMISTRY,1.0,mg/dL,0.8,1.6,88.4,88.39999999999998,umol/L,71,141,NORMAL,,8,WEEK 8,TREATMENT,2014-07-09T11:15,60
CDISCPILOT01,LB,CDISC008,160,EOS,Eosinophils,HEMATOLOGY,0.29,10^9/L,0,0.57,0.29,0.29,10^9/L,0,0.57,NORMAL,,8,WEEK 8,TREATMENT,2014-07-09T11:15,60
CDISCPILOT01,LB,CDISC008,161,GGT,Gamma Glutamyl Transferase,CHEMISTRY,31,U/L,10,50,31,31,U/L,10,50,NORMAL,,8,WEEK 8,TREATMENT,2014-07-09T11:15,60
CDISCPILOT01,LB,CDISC008,162,GLUC,Glucose,CHEMISTRY,137,mg/dL,50,250,7.60487,7.60487,mmol/L,2.8,13.9,NORMAL,,8,WEEK 8,TREATMENT,2014-07-09T11:15,60
CDISCPILOT01,LB,CDISC008,163,HCT,Hematocrit,HEMATOLOGY,49.0,%,37,51,0.49,0.49,,0.37,0.51,NORMAL,,8,WEEK 8,TREATMENT,2014-07-09T11:15,60
CDISCPILOT01,LB,CDISC008,164,HGB,Hemoglobin,HEMATOLOGY,15.1,g/dL,12.5,17,9.37106,9.37106,mmol/L,7.76,10.55,NORMAL,,8,WEEK 8,TREATMENT,2014-07-09T11:15,60
CDISCPILOT01,LB,CDISC008,165,K,Potassium,CHEMISTRY,3.9,mEq/L,3.4,5.4,3.9,3.9,mmol/L,3.4,5.399999999999999,NORMAL,,8,WEEK 8,TREATMENT,2014-07-09T11:15,60
CDISCPILOT01,LB,CDISC008,166,LYM,Lymphocytes,HEMATOLOGY,0.86,10^9/L,0.8,3,0.86,0.86,10^9/L,0.8,3,NORMAL,,8,WEEK 8,TREATMENT,2014-07-09T11:15,60
CDISCPILOT01,LB,CDISC008,167,MCH,Ery. Mean Corpuscular Hemoglobin,HEMATOLOGY,30,pg,26,34,1.8618,1.8618,fmol,1.6,2.1,NORMAL,,8,WEEK 8,TREATMENT,2014-07-09T11:15,60
CDISCPILOT01,LB,CDISC008,168,MCHC,Ery. Mean Corpuscular HGB Concentration,HEMATOLOGY,31,g/dL,31,38,19.2386,19.2386,mmol/L,19,24,NORMAL,,8,WEEK 8,TREATMENT,2014-07-09T11:15,60
CDISCPILOT01,LB,CDISC008,169,MCV,Ery. Mean Corpuscular Volume,HEMATOLOGY,97,fL,80,100,97,97,fL,80,100,NORMAL,,8,WEEK 8,TREATMENT,2014-07-09T11:15,60
CDISCPILOT01,LB,CDISC008,170,MONO,Monocytes,HEMATOLOGY,0.57,10^9/L,0.12,0.92,0.57,0.57,10^9/L,0.12,0.92,NORMAL,,8,WEEK 8,TREATMENT,2014-07-09T11:15,60
CDISCPILOT01,LB,CDISC008,171,SODIUM,Sodium,CHEMISTRY,137,mEq/L,135,145,137,137,mmol/L,135,145,NORMAL,,8,WEEK 8,TREATMENT,2014-07-09T11:15,60
CDISCPILOT01,LB,CDISC008,172,PHOS,Phosphate,CHEMISTRY,3.5,mg/dL,2.2,5.1,1.13015,1.13015,mmol/L,0.71,1.65,NORMAL,,8,WEEK 8,TREATMENT,2014-07-09T11:15,60
CDISCPILOT01,LB,CDISC008,173,PLAT,Platelets,HEMATOLOGY,490,10^9/L,130,394,490,490,10^9/L,130,394,HIGH,,8,WEEK 8,TREATMENT,2014-07-09T11:15,60
CDISCPILOT01,LB,CDISC008,174,PROT,Protein,CHEMISTRY,6.7,g/dL,6,8,67,67,g/L,60,80,NORMAL,,8,WEEK 8,TREATMENT,2014-07-09T11:15,60
CDISCPILOT01,LB,CDISC008,175,RBC,Erythrocytes,HEMATOLOGY,5.10,10^12/L,4,5.8,5.1,5.1,10^12/L,4,5.8,NORMAL,,8,WEEK 8,TREATMENT,2014-07-09T11:15,60
CDISCPILOT01,LB,CDISC008,176,URATE,Urate,CHEMISTRY,3.8,mg/dL,2.5,7.5,226.024,226.024,umol/L,149,446,NORMAL,,8,WEEK 8,TREATMENT,2014-07-09T11:15,60
CDISCPILOT01,LB,CDISC008,177,WBC,Leukocytes,HEMATOLOGY,7.16,10^9/L,3.8,10.7,7.16,7.159999999999999,10^9/L,3.8,10.7,NORMAL,,8,WEEK 8,TREATMENT,2014-07-09T11:15,60
CDISCPILOT01,LB,CDISC008,178,ALB,Albumin,CHEMISTRY,3.7,g/dL,3.5,4.6,37,37,g/L,35,46,NORMAL,,9,WEEK 12,TREATMENT,2014-08-06T15:45,88
CDISCPILOT01,LB,CDISC008,179,ALP,Alkaline Phosphatase,CHEMISTRY,77,U/L,35,115,77,77,U/L,35,115,NORMAL,,9,WEEK 12,TREATMENT,2014-08-06T15:45,88
CDISCPILOT01,LB,CDISC008,180,ALT,Alanine Aminotransferase,CHEMISTRY,42,U/L,6,35,42,42,U/L,6,35,HIGH,,9,WEEK 12,TREATMENT,2014-08-06T15:45,88
CDISCPILOT01,LB,CDISC008,181,AST,Aspartate Aminotransferase,CHEMISTRY,33,U/L,11,36,33,33,U/L,11,36,NORMAL,,9,WEEK 12,TREATMENT,2014-08-06T15:45,88
CDISCPILOT01,LB,CDISC008,182,BASO,Basophils,HEMATOLOGY,0.00,10^9/L,0,0.2,0,0,10^9/L,0,0.2,NORMAL,,9,WEEK 12,TREATMENT,2014-08-06T15:45,88
CDISCPILOT01,LB,CDISC008,183,BILI,Bilirubin,CHEMISTRY,0.5,mg/dL,0.2,1.2,8.55,8.549999999999999,umol/L,3,21,NORMAL,,9,WEEK 12,TREATMENT,2014-08-06T15:45,88
CDISCPILOT01,LB,CDISC008,184,UREAN,Urea Nitrogen,CHEMISTRY,21,mg/dL,4,24,7.497,7.497,mmol/L,1.4,8.6,NORMAL,,9,WEEK 12,TREATMENT,2014-08-06T15:45,88
CDISCPILOT01,LB,CDISC008,185,CA,Calcium,CHEMISTRY,9.3,mg/dL,8.4,10.3,2.32035,2.32035,mmol/L,2.1,2.57,NORMAL,,9,WEEK 12,TREATMENT,2014-08-06T15:45,88
CDISCPILOT01,LB,CDISC008,186,CHOL,Cholesterol,CHEMISTRY,153,mg/dL,149,286,3.95658,3.95658,mmol/L,3.85,7.4,NORMAL,,9,WEEK 12,TREATMENT,2014-08-06T15:45,88
CDISCPILOT01,LB,CDISC008,187,CK,Creatine Kinase,CHEMISTRY,186,U/L,22,198,186,186,U/L,22,198,NORMAL,,9,WEEK 12,TREATMENT,2014-08-06T15:45,88
CDISCPILOT01,LB,CDISC008,188,CL,Chloride,CHEMISTRY,100,mEq/L,94,112,100,100,mmol/L,94,112,NORMAL,,9,WEEK 12,TREATMENT,2014-08-06T15:45,88
CDISCPILOT01,LB,CDISC008,189,COLOR,Color,URINALYSIS,NORMAL,,,,NORMAL,,,,,NORMAL,,9,WEEK 12,TREATMENT,2014-08-06T15:45,88
CDISCPILOT01,LB,CDISC008,190,CREAT,Creatinine,CHEMISTRY,1.3,mg/dL,0.8,1.6,114.92,114.92,umol/L,71,141,NORMAL,,9,WEEK 12,TREATMENT,2014-08-06T15:45,88
CDISCPILOT01,LB,CDISC008,191,EOS,Eosinophils,HEMATOLOGY,0.19,10^9/L,0,0.57,0.19,0.19,10^9/L,0,0.57,NORMAL,,9,WEEK 12,TREATMENT,2014-08-06T15:45,88
CDISCPILOT01,LB,CDISC008,192,GGT,Gamma Glutamyl Transferase,CHEMISTRY,31,U/L,10,50,31,31,U/L,10,50,NORMAL,,9,WEEK 12,TREATMENT,2014-08-06T15:45,88
CDISCPILOT01,LB,CDISC008,193,GLUC,Glucose,CHEMISTRY,211,mg/dL,50,250,11.71261,11.71261,mmol/L,2.8,13.9,NORMAL,,9,WEEK 12,TREATMENT,2014-08-06T15:45,88
CDISCPILOT01,LB,CDISC008,194,HCT,Hematocrit,HEMATOLOGY,44.0,%,37,51,0.44,0.44,,0.37,0.51,NORMAL,,9,WEEK 12,TREATMENT,2014-08-06T15:45,88
CDISCPILOT01,LB,CDISC008,195,HGB,Hemoglobin,HEMATOLOGY,13.9,g/dL,12.5,17,8.62634,8.62634,mmol/L,7.76,10.55,NORMAL,,9,WEEK 12,TREATMENT,2014-08-06T15:45,88
CDISCPILOT01,LB,CDISC008,196,K,Potassium,CHEMISTRY,4.0,mEq/L,3.4,5.4,4,4,mmol/L,3.4,5.399999999999999,NORMAL,,9,WEEK 12,TREATMENT,2014-08-06T15:45,88
CDISCPILOT01,LB,CDISC008,197,KETONES,Ketones,URINALYSIS,0,,,,0,0,,,,NORMAL,,9,WEEK 12,TREATMENT,2014-08-06T15:45,88
CDISCPILOT01,LB,CDISC008,198,LYM,Lymphocytes,HEMATOLOGY,1.56,10^9/L,0.8,3,1.56,1.56,10^9/L,0.8,3,NORMAL,,9,WEEK 12,TREATMENT,2014-08-06T15:45,88
CDISCPILOT01,LB,CDISC008,199,MCH,Ery. Mean Corpuscular Hemoglobin,HEMATOLOGY,29,pg,26,34,1.79974,1.79974,fmol,1.6,2.1,NORMAL,,9,WEEK 12,TREATMENT,2014-08-06T15:45,88
CDISCPILOT01,LB,CDISC008,200,MCHC,Ery. Mean Corpuscular HGB Concentration,HEMATOLOGY,32,g/dL,31,38,19.8592,19.8592,mmol/L,19,24,NORMAL,,9,WEEK 12,TREATMENT,2014-08-06T15:45,88
CDISCPILOT01,LB,CDISC008,201,MCV,Ery. Mean Corpuscular Volume,HEMATOLOGY,92,fL,80,100,92,92,fL,80,100,NORMAL,,9,WEEK 12,TREATMENT,2014-08-06T15:45,88
CDISCPILOT01,LB,CDISC008,202,MONO,Monocytes,HEMATOLOGY,0.88,10^9/L,0.12,0.92,0.88,0.88,10^9/L,0.12,0.92,NORMAL,,9,WEEK 12,TREATMENT,2014-08-06T15:45,88
CDISCPILOT01,LB,CDISC008,203,SODIUM,Sodium,CHEMISTRY,136,mEq/L,135,145,136,136,mmol/L,135,145,NORMAL,,9,WEEK 12,TREATMENT,2014-08-06T15:45,88
CDISCPILOT01,LB,CDISC008,204,PH,pH,URINALYSIS,5,,5,8,5,5,,5,8,NORMAL,,9,WEEK 12,TREATMENT,2014-08-06T15:45,88
CDISCPILOT01,LB,CDISC008,205,PHOS,Phosphate,CHEMISTRY,4.0,mg/dL,2.2,5.1,1.2916,1.2916,mmol/L,0.71,1.65,NORMAL,,9,WEEK 12,TREATMENT,2014-08-06T15:45,88
CDISCPILOT01,LB,CDISC008,206,PLAT,Platelets,HEMATOLOGY,383,10^9/L,130,394,383,383,10^9/L,130,394,NORMAL,,9,WEEK 12,TREATMENT,2014-08-06T15:45,88
CDISCPILOT01,LB,CDISC008,207,PROT,Protein,CHEMISTRY,6.6,g/dL,6,8,66,66,g/L,60,80,NORMAL,,9,WEEK 12,TREATMENT,2014-08-06T15:45,88
CDISCPILOT01,LB,CDISC008,208,RBC,Erythrocytes,HEMATOLOGY,4.80,10^12/L,4,5.8,4.8,4.8,10^12/L,4,5.8,NORMAL,,9,WEEK 12,TREATMENT,2014-08-06T15:45,88
CDISCPILOT01,LB,CDISC008,209,SPGRAV,Specific Gravity,URINALYSIS,1.023,,1.006,1.03,1.023,1.023,,1.006,1.03,NORMAL,,9,WEEK 12,TREATMENT,2014-08-06T15:45,88
CDISCPILOT01,LB,CDISC008,210,URATE,Urate,CHEMISTRY,3.9,mg/dL,2.5,7.5,231.972,231.972,umol/L,149,446,NORMAL,,9,WEEK 12,TREATMENT,2014-08-06T15:45,88
CDISCPILOT01,LB,CDISC008,211,UROBIL,Urobilinogen,URINALYSIS,0,,,,0,0,,,,NORMAL,,9,WEEK 12,TREATMENT,2014-08-06T15:45,88
CDISCPILOT01,LB,CDISC008,212,WBC,Leukocytes,HEMATOLOGY,6.25,10^9/L,3.8,10.7,6.25,6.25,10^9/L,3.8,10.7,NORMAL,,9,WEEK 12,TREATMENT,2014-08-06T15:45,88
CDISCPILOT01,LB,CDISC008,213,ALB,Albumin,CHEMISTRY,3.9,g/dL,3.5,4.6,39,39,g/L,35,46,NORMAL,,10,WEEK 16,TREATMENT,2014-09-03T10:30,116
CDISCPILOT01,LB,CDISC008,214,ALP,Alkaline Phosphatase,CHEMISTRY,81,U/L,35,115,81,81,U/L,35,115,NORMAL,,10,WEEK 16,TREATMENT,2014-09-03T10:30,116
CDISCPILOT01,LB,CDISC008,215,ALT,Alanine Aminotransferase,CHEMISTRY,48,U/L,6,35,48,48,U/L,6,35,HIGH,,10,WEEK 16,TREATMENT,2014-09-03T10:30,116
CDISCPILOT01,LB,CDISC008,216,AST,Aspartate Aminotransferase,CHEMISTRY,40,U/L,11,36,40,40,U/L,11,36,HIGH,,10,WEEK 16,TREATMENT,2014-09-03T10:30,116
CDISCPILOT01,LB,CDISC008,217,BASO,Basophils,HEMATOLOGY,0.00,10^9/L,0,0.2,0,0,10^9/L,0,0.2,NORMAL,,10,WEEK 16,TREATMENT,2014-09-03T10:30,116
CDISCPILOT01,LB,CDISC008,218,BILI,Bilirubin,CHEMISTRY,0.6,mg/dL,0.2,1.2,10.26,10.26,umol/L,3,21,NORMAL,,10,WEEK 16,TREATMENT,2014-09-03T10:30,116
CDISCPILOT01,LB,CDISC008,219,UREAN,Urea Nitrogen,CHEMISTRY,15,mg/dL,4,24,5.355,5.355,mmol/L,1.4,8.6,NORMAL,,10,WEEK 16,TREATMENT,2014-09-03T10:30,116
CDISCPILOT01,LB,CDISC008,220,CA,Calcium,CHEMISTRY,9.7,mg/dL,8.4,10.3,2.42015,2.42015,mmol/L,2.1,2.57,NORMAL,,10,WEEK 16,TREATMENT,2014-09-03T10:30,116
CDISCPILOT01,LB,CDISC008,221,CHOL,Cholesterol,CHEMISTRY,174,mg/dL,149,286,4.49964,4.499639999999999,mmol/L,3.85,7.4,NORMAL,,10,WEEK 16,TREATMENT,2014-09-03T10:30,116
CDISCPILOT01,LB,CDISC008,222,CK,Creatine Kinase,CHEMISTRY,147,U/L,22,198,147,147,U/L,22,198,NORMAL,,10,WEEK 16,TREATMENT,2014-09-03T10:30,116
CDISCPILOT01,LB,CDISC008,223,CL,Chloride,CHEMISTRY,100,mEq/L,94,112,100,100,mmol/L,94,112,NORMAL,,10,WEEK 16,TREATMENT,2014-09-03T10:30,116
CDISCPILOT01,LB,CDISC008,224,CREAT,Creatinine,CHEMISTRY,1.0,mg/dL,0.8,1.6,88.4,88.39999999999998,umol/L,71,141,NORMAL,,10,WEEK 16,TREATMENT,2014-09-03T10:30,116
CDISCPILOT01,LB,CDISC008,225,EOS,Eosinophils,HEMATOLOGY,0.00,10^9/L,0,0.57,0,0,10^9/L,0,0.57,NORMAL,,10,WEEK 16,TREATMENT,2014-09-03T10:30,116
CDISCPILOT01,LB,CDISC008,226,GGT,Gamma Glutamyl Transferase,CHEMISTRY,37,U/L,10,50,37,37,U/L,10,50,NORMAL,,10,WEEK 16,TREATMENT,2014-09-03T10:30,116
CDISCPILOT01,LB,CDISC008,227,GLUC,Glucose,CHEMISTRY,164,mg/dL,50,250,9.10364,9.103639999999999,mmol/L,2.8,13.9,NORMAL,,10,WEEK 16,TREATMENT,2014-09-03T10:30,116
CDISCPILOT01,LB,CDISC008,228,HCT,Hematocrit,HEMATOLOGY,52.0,%,37,51,0.52,0.5199999999999999,,0.37,0.51,HIGH,,10,WEEK 16,TREATMENT,2014-09-03T10:30,116
CDISCPILOT01,LB,CDISC008,229,HGB,Hemoglobin,HEMATOLOGY,15.3,g/dL,12.5,17,9.49518,9.49518,mmol/L,7.76,10.55,NORMAL,,10,WEEK 16,TREATMENT,2014-09-03T10:30,116
CDISCPILOT01,LB,CDISC008,230,K,Potassium,CHEMISTRY,4.3,mEq/L,3.4,5.4,4.3,4.3,mmol/L,3.4,5.399999999999999,NORMAL,,10,WEEK 16,TREATMENT,2014-09-03T10:30,116
CDISCPILOT01,LB,CDISC008,231,LYM,Lymphocytes,HEMATOLOGY,0.83,10^9/L,0.8,3,0.83,0.83,10^9/L,0.8,3,NORMAL,,10,WEEK 16,TREATMENT,2014-09-03T10:30,116
CDISCPILOT01,LB,CDISC008,232,MCH,Ery. Mean Corpuscular Hemoglobin,HEMATOLOGY,29,pg,26,34,1.79974,1.79974,fmol,1.6,2.1,NORMAL,,10,WEEK 16,TREATMENT,2014-09-03T10:30,116
CDISCPILOT01,LB,CDISC008,233,MCHC,Ery. Mean Corpuscular HGB Concentration,HEMATOLOGY,29,g/dL,31,38,17.9974,17.9974,mmol/L,19,24,LOW,,10,WEEK 16,TREATMENT,2014-09-03T10:30,116
CDISCPILOT01,LB,CDISC008,234,MCV,Ery. Mean Corpuscular Volume,HEMATOLOGY,100,fL,80,100,100,100,fL,80,100,NORMAL,,10,WEEK 16,TREATMENT,2014-09-03T10:30,116
CDISCPILOT01,LB,CDISC008,235,MONO,Monocytes,HEMATOLOGY,0.32,10^9/L,0.12,0.92,0.32,0.32,10^9/L,0.12,0.92,NORMAL,,10,WEEK 16,TREATMENT,2014-09-03T10:30,116
CDISCPILOT01,LB,CDISC008,236,SODIUM,Sodium,CHEMISTRY,137,mEq/L,135,145,137,137,mmol/L,135,145,NORMAL,,10,WEEK 16,TREATMENT,2014-09-03T10:30,116
CDISCPILOT01,LB,CDISC008,237,PHOS,Phosphate,CHEMISTRY,3.6,mg/dL,2.2,5.1,1.16244,1.16244,mmol/L,0.71,1.65,NORMAL,,10,WEEK 16,TREATMENT,2014-09-03T10:30,116
CDISCPILOT01,LB,CDISC008,238,PLAT,Platelets,HEMATOLOGY,409,10^9/L,130,394,409,409,10^9/L,130,394,HIGH,,10,WEEK 16,TREATMENT,2014-09-03T10:30,116
CDISCPILOT01,LB,CDISC008,239,PROT,Protein,CHEMISTRY,6.9,g/dL,6,8,69,69,g/L,60,80,NORMAL,,10,WEEK 16,TREATMENT,2014-09-03T10:30,116
CDISCPILOT01,LB,CDISC008,240,RBC,Erythrocytes,HEMATOLOGY,5.20,10^12/L,4,5.8,5.2,5.199999999999999,10^12/L,4,5.8,NORMAL,,10,WEEK 16,TREATMENT,2014-09-03T10:30,116
CDISCPILOT01,LB,CDISC008,241,URATE,Urate,CHEMISTRY,3.4,mg/dL,2.5,7.5,202.232,202.232,umol/L,149,446,NORMAL,,10,WEEK 16,TREATMENT,2014-09-03T10:30,116
CDISCPILOT01,LB,CDISC008,242,WBC,Leukocytes,HEMATOLOGY,6.38,10^9/L,3.8,10.7,6.38,6.38,10^9/L,3.8,10.7,NORMAL,,10,WEEK 16,TREATMENT,2014-09-03T10:30,116
CDISCPILOT01,LB,CDISC008,243,ALB,Albumin,CHEMISTRY,3.7,g/dL,3.5,4.6,37,37,g/L,35,46,NORMAL,,11,WEEK 20,TREATMENT,2014-10-01T09:30,144
CDISCPILOT01,LB,CDISC008,244,ALP,Alkaline Phosphatase,CHEMISTRY,77,U/L,35,115,77,77,U/L,35,115,NORMAL,,11,WEEK 20,TREATMENT,2014-10-01T09:30,144
CDISCPILOT01,LB,CDISC008,245,ALT,Alanine Aminotransferase,CHEMISTRY,31,U/L,6,35,31,31,U/L,6,35,NORMAL,,11,WEEK 20,TREATMENT,2014-10-01T09:30,144
CDISCPILOT01,LB,CDISC008,246,AST,Aspartate Aminotransferase,CHEMISTRY,29,U/L,11,36,29,29,U/L,11,36,NORMAL,,11,WEEK 20,TREATMENT,2014-10-01T09:30,144
CDISCPILOT01,LB,CDISC008,247,BASO,Basophils,HEMATOLOGY,0.16,10^9/L,0,0.2,0.16,0.16,10^9/L,0,0.2,NORMAL,,11,WEEK 20,TREATMENT,2014-10-01T09:30,144
CDISCPILOT01,LB,CDISC008,248,BILI,Bilirubin,CHEMISTRY,0.5,mg/dL,0.2,1.2,8.55,8.549999999999999,umol/L,3,21,NORMAL,,11,WEEK 20,TREATMENT,2014-10-01T09:30,144
CDISCPILOT01,LB,CDISC008,249,UREAN,Urea Nitrogen,CHEMISTRY,17,mg/dL,4,24,6.069,6.069,mmol/L,1.4,8.6,NORMAL,,11,WEEK 20,TREATMENT,2014-10-01T09:30,144
CDISCPILOT01,LB,CDISC008,250,CA,Calcium,CHEMISTRY,9.7,mg/dL,8.4,10.3,2.42015,2.42015,mmol/L,2.1,2.57,NORMAL,,11,WEEK 20,TREATMENT,2014-10-01T09:30,144
CDISCPILOT01,LB,CDISC008,251,CHOL,Cholesterol,CHEMISTRY,162,mg/dL,149,286,4.18932,4.189319999999999,mmol/L,3.85,7.4,NORMAL,,11,WEEK 20,TREATMENT,2014-10-01T09:30,144
CDISCPILOT01,LB,CDISC008,252,CK,Creatine Kinase,CHEMISTRY,111,U/L,22,198,111,111,U/L,22,198,NORMAL,,11,WEEK 20,TREATMENT,2014-10-01T09:30,144
CDISCPILOT01,LB,CDISC008,253,COLOR,Color,URINALYSIS,NORMAL,,,,NORMAL,,,,,NORMAL,,11,WEEK 20,TREATMENT,2014-10-01T09:30,144
CDISCPILOT01,LB,CDISC008,254,CREAT,Creatinine,CHEMISTRY,1.0,mg/dL,0.8,1.6,88.4,88.39999999999998,umol/L,71,141,NORMAL,,11,WEEK 20,TREATMENT,2014-10-01T09:30,144
CDISCPILOT01,LB,CDISC008,255,EOS,Eosinophils,HEMATOLOGY,0.07,10^9/L,0,0.57,0.07,0.07,10^9/L,0,0.57,NORMAL,,11,WEEK 20,TREATMENT,2014-10-01T09:30,144
CDISCPILOT01,LB,CDISC008,256,GGT,Gamma Glutamyl Transferase,CHEMISTRY,30,U/L,10,50,30,30,U/L,10,50,NORMAL,,11,WEEK 20,TREATMENT,2014-10-01T09:30,144
CDISCPILOT01,LB,CDISC008,257,GLUC,Glucose,CHEMISTRY,171,mg/dL,50,250,9.49221,9.49221,mmol/L,2.8,13.9,NORMAL,,11,WEEK 20,TREATMENT,2014-10-01T09:30,144
CDISCPILOT01,LB,CDISC008,258,HCT,Hematocrit,HEMATOLOGY,49.0,%,37,51,0.49,0.49,,0.37,0.51,NORMAL,,11,WEEK 20,TREATMENT,2014-10-01T09:30,144
CDISCPILOT01,LB,CDISC008,259,HGB,Hemoglobin,HEMATOLOGY,14.9,g/dL,12.5,17,9.24694,9.246939999999999,mmol/L,7.76,10.55,NORMAL,,11,WEEK 20,TREATMENT,2014-10-01T09:30,144
CDISCPILOT01,LB,CDISC008,260,KETONES,Ketones,URINALYSIS,0,,,,0,0,,,,NORMAL,,11,WEEK 20,TREATMENT,2014-10-01T09:30,144
CDISCPILOT01,LB,CDISC008,261,LYM,Lymphocytes,HEMATOLOGY,2.06,10^9/L,0.8,3,2.06,2.06,10^9/L,0.8,3,NORMAL,,11,WEEK 20,TREATMENT,2014-10-01T09:30,144
CDISCPILOT01,LB,CDISC008,262,MCH,Ery. Mean Corpuscular Hemoglobin,HEMATOLOGY,30,pg,26,34,1.8618,1.8618,fmol,1.6,2.1,NORMAL,,11,WEEK 20,TREATMENT,2014-10-01T09:30,144
CDISCPILOT01,LB,CDISC008,263,MCHC,Ery. Mean Corpuscular HGB Concentration,HEMATOLOGY,31,g/dL,31,38,19.2386,19.2386,mmol/L,19,24,NORMAL,,11,WEEK 20,TREATMENT,2014-10-01T09:30,144
CDISCPILOT01,LB,CDISC008,264,MCV,Ery. Mean Corpuscular Volume,HEMATOLOGY,99,fL,80,100,99,99,fL,80,100,NORMAL,,11,WEEK 20,TREATMENT,2014-10-01T09:30,144
CDISCPILOT01,LB,CDISC008,265,MONO,Monocytes,HEMATOLOGY,1.15,10^9/L,0.12,0.92,1.15,1.15,10^9/L,0.12,0.92,HIGH,,11,WEEK 20,TREATMENT,2014-10-01T09:30,144
CDISCPILOT01,LB,CDISC008,266,PH,pH,URINALYSIS,6,,5,8,6,6,,5,8,NORMAL,,11,WEEK 20,TREATMENT,2014-10-01T09:30,144
CDISCPILOT01,LB,CDISC008,267,PHOS,Phosphate,CHEMISTRY,3.5,mg/dL,2.2,5.1,1.13015,1.13015,mmol/L,0.71,1.65,NORMAL,,11,WEEK 20,TREATMENT,2014-10-01T09:30,144
CDISCPILOT01,LB,CDISC008,268,PLAT,Platelets,HEMATOLOGY,515,10^9/L,130,394,515,515,10^9/L,130,394,HIGH,,11,WEEK 20,TREATMENT,2014-10-01T09:30,144
CDISCPILOT01,LB,CDISC008,269,PROT,Protein,CHEMISTRY,7.0,g/dL,6,8,70,70,g/L,60,80,NORMAL,,11,WEEK 20,TREATMENT,2014-10-01T09:30,144
CDISCPILOT01,LB,CDISC008,270,RBC,Erythrocytes,HEMATOLOGY,4.90,10^12/L,4,5.8,4.9,4.899999999999999,10^12/L,4,5.8,NORMAL,,11,WEEK 20,TREATMENT,2014-10-01T09:30,144
CDISCPILOT01,LB,CDISC008,271,SPGRAV,Specific Gravity,URINALYSIS,1.023,,1.006,1.03,1.023,1.023,,1.006,1.03,NORMAL,,11,WEEK 20,TREATMENT,2014-10-01T09:30,144
CDISCPILOT01,LB,CDISC008,272,URATE,Urate,CHEMISTRY,3.6,mg/dL,2.5,7.5,214.128,214.128,umol/L,149,446,NORMAL,,11,WEEK 20,TREATMENT,2014-10-01T09:30,144
CDISCPILOT01,LB,CDISC008,273,UROBIL,Urobilinogen,URINALYSIS,0,,,,0,0,,,,NORMAL,,11,WEEK 20,TREATMENT,2014-10-01T09:30,144
CDISCPILOT01,LB,CDISC008,274,WBC,Leukocytes,HEMATOLOGY,12.41,10^9/L,3.8,10.7,12.41,12.41,10^9/L,3.8,10.7,HIGH,,11,WEEK 20,TREATMENT,2014-10-01T09:30,144
