STUDYID,DOMAIN,USUBJID,FOCID,OESEQ,OETESTCD,OETEST,OEORRES,OESTRESC,OELOC,OELAT,OEMETHOD,OELOBXFL,VISITNUM,VISIT,EPOCH,OEDTC,OEDY
CDISCPILOT01,OE,CDISC004,OD,1,INTP,Interpretation,NORMAL,NORMAL,EYE,RIGHT,SLIT LAMP,,1,SCREENING 1,SCREENING,2013-10-01,-7
CDISCPILOT01,OE,CDISC004,OS,2,INTP,Interpretation,ABNORMAL,ABNORMAL,EYE,LEFT,SLIT LAMP,,1,SCREENING 1,SCREENING,2013-10-01,-7
CDISCPILOT01,OE,CDISC004,OS,3,ABDETAIL,Abnormality Detail,PTOSIS,PTOSIS,IRIS,LEFT,SLIT LAMP,,1,SCREENING 1,SCREENING,2013-10-01,-7
CDISCPILOT01,OE,CDISC004,OD,4,INTP,Interpretation,NORMAL,NORMAL,EYE,RIGHT,SLIT LAMP,,2,SCREENING 2,SCREENING,2013-10-06,-2
CDISCPILOT01,OE,CDISC004,OS,5,INTP,Interpretation,ABNORMAL,ABNORMAL,EYE,LEFT,SLIT LAMP,,2,SCREENING 2,SCREENING,2013-10-06,-2
CDISCPILOT01,OE,CDISC004,OS,6,ABDETAIL,Abnormality Detail,PTOSIS,PTOSIS,IRIS,LEFT,SLIT LAMP,,2,SCREENING 2,SCREENING,2013-10-06,-2
CDISCPILOT01,OE,CDISC004,OD,7,INTP,Interpretation,NORMAL,NORMAL,EYE,RIGHT,SLIT LAMP,Y,3,BASELINE,SCREENING,2013-10-08,1
CDISCPILOT01,OE,CDISC004,OS,8,INTP,Interpretation,ABNORMAL,ABNORMAL,EYE,LEFT,SLIT LAMP,Y,3,BASELINE,SCREENING,2013-10-08,1
CDISCPILOT01,OE,CDISC004,OS,9,ABDETAIL,Abnormality Detail,PTOSIS,PTOSIS,IRIS,LEFT,SLIT LAMP,,3,BASELINE,SCREENING,2013-10-08,1
CDISCPILOT01,OE,CDISC004,OD,10,INTP,Interpretation,NORMAL,NORMAL,EYE,RIGHT,SLIT LAMP,,4,WEEK 2,TREATMENT,2013-10-24,17
CDISCPILOT01,OE,CDISC004,OS,11,INTP,Interpretation,ABNORMAL,ABNORMAL,EYE,LEFT,SLIT LAMP,,4,WEEK 2,TREATMENT,2013-10-24,17
CDISCPILOT01,OE,CDISC004,OS,12,ABDETAIL,Abnormality Detail,PTOSIS,PTOSIS,IRIS,LEFT,SLIT LAMP,,4,WEEK 2,TREATMENT,2013-10-24,17
CDISCPILOT01,OE,CDISC004,OD,13,INTP,Interpretation,NORMAL,NORMAL,EYE,RIGHT,SLIT LAMP,,5,WEEK 4,TREATMENT,2013-11-08,32
CDISCPILOT01,OE,CDISC004,OS,14,INTP,Interpretation,ABNORMAL,ABNORMAL,EYE,LEFT,SLIT LAMP,,5,WEEK 4,TREATMENT,2013-11-08,32
CDISCPILOT01,OE,CDISC004,OS,15,ABDETAIL,Abnormality Detail,PTOSIS,PTOSIS,IRIS,LEFT,SLIT LAMP,,5,WEEK 4,TREATMENT,2013-11-08,32
CDISCPILOT01,OE,CDISC004,OD,16,INTP,Interpretation,NORMAL,NORMAL,EYE,RIGHT,SLIT LAMP,,8,WEEK 8,TREATMENT,2013-12-03,57
CDISCPILOT01,OE,CDISC004,OS,17,INTP,Interpretation,ABNORMAL,ABNORMAL,EYE,LEFT,SLIT LAMP,,8,WEEK 8,TREATMENT,2013-12-03,57
CDISCPILOT01,OE,CDISC004,OS,18,ABDETAIL,Abnormality Detail,PTOSIS,PTOSIS,IRIS,LEFT,SLIT LAMP,,8,WEEK 8,TREATMENT,2013-12-03,57
CDISCPILOT01,OE,CDISC004,OD,19,INTP,Interpretation,NORMAL,NORMAL,EYE,RIGHT,SLIT LAMP,,9,WEEK 12,TREATMENT,2013-12-31,85
CDISCPILOT01,OE,CDISC004,OS,20,INTP,Interpretation,ABNORMAL,ABNORMAL,EYE,LEFT,SLIT LAMP,,9,WEEK 12,TREATMENT,2013-12-31,85
CDISCPILOT01,OE,CDISC004,OS,21,ABDETAIL,Abnormality Detail,PTOSIS,PTOSIS,IRIS,LEFT,SLIT LAMP,,9,WEEK 12,TREATMENT,2013-12-31,85
CDISCPILOT01,OE,CDISC004,OD,22,INTP,Interpretation,NORMAL,NORMAL,EYE,RIGHT,SLIT LAMP,,10,WEEK 16,TREATMENT,2014-01-27,112
CDISCPILOT01,OE,CDISC004,OS,23,INTP,Interpretation,ABNORMAL,ABNORMAL,EYE,LEFT,SLIT LAMP,,10,WEEK 16,TREATMENT,2014-01-27,112
CDISCPILOT01,OE,CDISC004,OS,24,ABDETAIL,Abnormality Detail,PTOSIS,PTOSIS,IRIS,LEFT,SLIT LAMP,,10,WEEK 16,TREATMENT,2014-01-27,112
CDISCPILOT01,OE,CDISC004,OD,25,INTP,Interpretation,NORMAL,NORMAL,EYE,RIGHT,SLIT LAMP,,11,WEEK 20,TREATMENT,2014-02-25,141
CDISCPILOT01,OE,CDISC004,OS,26,INTP,Interpretation,ABNORMAL,ABNORMAL,EYE,LEFT,SLIT LAMP,,11,WEEK 20,TREATMENT,2014-02-25,141
CDISCPILOT01,OE,CDISC004,OS,27,ABDETAIL,Abnormality Detail,PTOSIS,PTOSIS,IRIS,LEFT,SLIT LAMP,,11,WEEK 20,TREATMENT,2014-02-25,141
CDISCPILOT01,OE,CDISC004,OD,28,INTP,Interpretation,NORMAL,NORMAL,EYE,RIGHT,SLIT LAMP,,12,WEEK 24,TREATMENT,2014-03-18,162
CDISCPILOT01,OE,CDISC004,OS,29,INTP,Interpretation,ABNORMAL,ABNORMAL,EYE,LEFT,SLIT LAMP,,12,WEEK 24,TREATMENT,2014-03-18,162
CDISCPILOT01,OE,CDISC004,OS,30,ABDETAIL,Abnormality Detail,PTOSIS,PTOSIS,IRIS,LEFT,SLIT LAMP,,12,WEEK 24,TREATMENT,2014-03-18,162
CDISCPILOT01,OE,CDISC005,OD,1,INTP,Interpretation,NORMAL,NORMAL,EYE,RIGHT,SLIT LAMP,,1,SCREENING 1,SCREENING,2013-01-22,-13
CDISCPILOT01,OE,CDISC005,OS,2,INTP,Interpretation,NORMAL,NORMAL,EYE,LEFT,SLIT LAMP,,1,SCREENING 1,SCREENING,2013-01-22,-13
CDISCPILOT01,OE,CDISC005,OD,3,INTP,Interpretation,NORMAL,NORMAL,EYE,RIGHT,SLIT LAMP,,2,SCREENING 2,SCREENING,2013-02-02,-2
CDISCPILOT01,OE,CDISC005,OS,4,INTP,Interpretation,NORMAL,NORMAL,EYE,LEFT,SLIT LAMP,,2,SCREENING 2,SCREENING,2013-02-02,-2
CDISCPILOT01,OE,CDISC005,OD,5,INTP,Interpretation,NORMAL,NORMAL,EYE,RIGHT,SLIT LAMP,Y,3,BASELINE,SCREENING,2013-02-04,1
CDISCPILOT01,OE,CDISC005,OS,6,INTP,Interpretation,NORMAL,NORMAL,EYE,LEFT,SLIT LAMP,Y,3,BASELINE,SCREENING,2013-02-04,1
CDISCPILOT01,OE,CDISC005,OD,7,INTP,Interpretation,NORMAL,NORMAL,EYE,RIGHT,SLIT LAMP,,4,WEEK 2,TREATMENT,2013-02-19,16
CDISCPILOT01,OE,CDISC005,OS,8,INTP,Interpretation,NORMAL,NORMAL,EYE,LEFT,SLIT LAMP,,4,WEEK 2,TREATMENT,2013-02-19,16
CDISCPILOT01,OE,CDISC005,OD,9,INTP,Interpretation,NORMAL,NORMAL,EYE,RIGHT,SLIT LAMP,,5,WEEK 4,TREATMENT,2013-03-12,37
CDISCPILOT01,OE,CDISC005,OS,10,INTP,Interpretation,NORMAL,NORMAL,EYE,LEFT,SLIT LAMP,,5,WEEK 4,TREATMENT,2013-03-12,37
CDISCPILOT01,OE,CDISC005,OD,11,INTP,Interpretation,NORMAL,NORMAL,EYE,RIGHT,SLIT LAMP,,8,WEEK 8,TREATMENT,2013-04-02,58
CDISCPILOT01,OE,CDISC005,OS,12,INTP,Interpretation,NORMAL,NORMAL,EYE,LEFT,SLIT LAMP,,8,WEEK 8,TREATMENT,2013-04-02,58
CDISCPILOT01,OE,CDISC005,OD,13,INTP,Interpretation,NORMAL,NORMAL,EYE,RIGHT,SLIT LAMP,,9,WEEK 12,TREATMENT,2013-04-30,86
CDISCPILOT01,OE,CDISC005,OS,14,INTP,Interpretation,NORMAL,NORMAL,EYE,LEFT,SLIT LAMP,,9,WEEK 12,TREATMENT,2013-04-30,86
CDISCPILOT01,OE,CDISC005,OD,15,INTP,Interpretation,NORMAL,NORMAL,EYE,RIGHT,SLIT LAMP,,10,WEEK 16,TREATMENT,2013-05-30,116
CDISCPILOT01,OE,CDISC005,OS,16,INTP,Interpretation,NORMAL,NORMAL,EYE,LEFT,SLIT LAMP,,10,WEEK 16,TREATMENT,2013-05-30,116
CDISCPILOT01,OE,CDISC005,OD,17,INTP,Interpretation,NORMAL,NORMAL,EYE,RIGHT,SLIT LAMP,,11,WEEK 20,TREATMENT,2013-06-25,142
CDISCPILOT01,OE,CDISC005,OS,18,INTP,Interpretation,NORMAL,NORMAL,EYE,LEFT,SLIT LAMP,,11,WEEK 20,TREATMENT,2013-06-25,142
CDISCPILOT01,OE,CDISC005,OD,19,INTP,Interpretation,NORMAL,NORMAL,EYE,RIGHT,SLIT LAMP,,12,WEEK 24,TREATMENT,2013-07-30,177
CDISCPILOT01,OE,CDISC005,OS,20,INTP,Interpretation,NORMAL,NORMAL,EYE,LEFT,SLIT LAMP,,12,WEEK 24,TREATMENT,2013-07-30,177
CDISCPILOT01,OE,CDISC005,OD,21,INTP,Interpretation,NORMAL,NORMAL,EYE,RIGHT,SLIT LAMP,,13,WEEK 26,TREATMENT,2013-08-06,184
CDISCPILOT01,OE,CDISC005,OS,22,INTP,Interpretation,NORMAL,NORMAL,EYE,LEFT,SLIT LAMP,,13,WEEK 26,TREATMENT,2013-08-06,184
CDISCPILOT01,OE,CDISC008,OD,1,INTP,Interpretation,NORMAL,NORMAL,EYE,RIGHT,SLIT LAMP,,1,SCREENING 1,SCREENING,2014-05-01,-10
CDISCPILOT01,OE,CDISC008,OS,2,INTP,Interpretation,NORMAL,NORMAL,EYE,LEFT,SLIT LAMP,,1,SCREENING 1,SCREENING,2014-05-01,-10
CDISCPILOT01,OE,CDISC008,OD,3,INTP,Interpretation,NORMAL,NORMAL,EYE,RIGHT,SLIT LAMP,,2,SCREENING 2,SCREENING,2014-05-09,-2
CDISCPILOT01,OE,CDISC008,OS,4,INTP,Interpretation,NORMAL,NORMAL,EYE,LEFT,SLIT LAMP,,2,SCREENING 2,SCREENING,2014-05-09,-2
CDISCPILOT01,OE,CDISC008,OD,5,INTP,Interpretation,NORMAL,NORMAL,EYE,RIGHT,SLIT LAMP,Y,3,BASELINE,SCREENING,2014-05-11,1
CDISCPILOT01,OE,CDISC008,OS,6,INTP,Interpretation,NORMAL,NORMAL,EYE,LEFT,SLIT LAMP,Y,3,BASELINE,SCREENING,2014-05-11,1
CDISCPILOT01,OE,CDISC008,OD,7,INTP,Interpretation,NORMAL,NORMAL,EYE,RIGHT,SLIT LAMP,,4,WEEK 2,TREATMENT,2014-05-25,15
CDISCPILOT01,OE,CDISC008,OS,8,INTP,Interpretation,NORMAL,NORMAL,EYE,LEFT,SLIT LAMP,,4,WEEK 2,TREATMENT,2014-05-25,15
CDISCPILOT01,OE,CDISC008,OD,9,INTP,Interpretation,NORMAL,NORMAL,EYE,RIGHT,SLIT LAMP,,5,WEEK 4,TREATMENT,2014-06-11,32
CDISCPILOT01,OE,CDISC008,OS,10,INTP,Interpretation,NORMAL,NORMAL,EYE,LEFT,SLIT LAMP,,5,WEEK 4,TREATMENT,2014-06-11,32
CDISCPILOT01,OE,CDISC008,OD,11,INTP,Interpretation,NORMAL,NORMAL,EYE,RIGHT,SLIT LAMP,,8,WEEK 8,TREATMENT,2014-07-09,60
CDISCPILOT01,OE,CDISC008,OS,12,INTP,Interpretation,NORMAL,NORMAL,EYE,LEFT,SLIT LAMP,,8,WEEK 8,TREATMENT,2014-07-09,60
CDISCPILOT01,OE,CDISC008,OD,13,INTP,Interpretation,NORMAL,NORMAL,EYE,RIGHT,SLIT LAMP,,9,WEEK 12,TREATMENT,2014-08-06,88
CDISCPILOT01,OE,CDISC008,OS,14,INTP,Interpretation,NORMAL,NORMAL,EYE,LEFT,SLIT LAMP,,9,WEEK 12,TREATMENT,2014-08-06,88
CDISCPILOT01,OE,CDISC008,OD,15,INTP,Interpretation,NORMAL,NORMAL,EYE,RIGHT,SLIT LAMP,,10,WEEK 16,TREATMENT,2014-09-03,116
CDISCPILOT01,OE,CDISC008,OS,16,INTP,Interpretation,NORMAL,NORMAL,EYE,LEFT,SLIT LAMP,,10,WEEK 16,TREATMENT,2014-09-03,116
CDISCPILOT01,OE,CDISC008,OD,17,INTP,Interpretation,NORMAL,NORMAL,EYE,RIGHT,SLIT LAMP,,11,WEEK 20,TREATMENT,2014-10-01,144
CDISCPILOT01,OE,CDISC008,OS,18,INTP,Interpretation,NORMAL,NORMAL,EYE,LEFT,SLIT LAMP,,11,WEEK 20,TREATMENT,2014-10-01,144
