STUDYID,DOMAIN,USUBJID,VSSEQ,VSTESTCD,VSTEST,VSPOS,VSORRES,VSORRESU,VSSTRESC,VSSTRESN,VSSTRESU,VSSTAT,VSLOC,VSLOBXFL,VSREPNUM,VISITNUM,VISIT,EPOCH,VSDTC,VSDY
CDISCPILOT01,VS,CDISC004,1,DIABP,Diastolic Blood Pressure,SUPINE,47,mmHg,47,47,mmHg,,,,1,1,SCREENING 1,SCREENING,2013-10-01,-7
CDISCPILOT01,VS,CDISC004,2,DIABP,Diastolic Blood Pressure,STANDING,55,mmHg,55,55,mmHg,,,,2,2,SCREENING 2,SCREENING,2013-10-01,-2
CDISCPILOT01,VS,CDISC005,1,DIABP,Diastolic Blood Pressure,SUPINE,72,mmHg,72,72,mmHg,,,,1,1,SCREENING 1,SCREENING,2013-01-22,-13
CDISCPILOT01,VS,CDISC005,2,DIABP,Diastolic Blood Pressure,STANDING,66,mmHg,66,66,mmHg,,,,2,2,SCREENING 2,SCREENING,2013-01-22,-2
