STUDYID,DOMAIN,USUBJID,SESEQ,ETCD,ELEMENT,TAETORD,EPOCH,SESTDTC,SEENDTC,SESTDY,SEENDY,SEUPDES
Sample001,SE,1201001,1,SCRN,Screen,1,SCREENING,2018-06-29,2018-08-13,-45,1,
Sample001,SE,1201001,2,TRTZ,TRTMTA,2,"OPEN LABEL
TREATMENT",2018-08-13,2019-05-13,1,274,
Sample001,SE,1201001,3,FU,Follow-up,3,FOLLOW-UP,2019-05-13,2020-03-22,274,588,
Sample001,SE,1201002,1,SCRN,Screen,1,SCREENING,2018-11-20,2019-01-07,-48,1,
Sample001,SE,1201002,2,TRTZ,TRTMTA,2,"OPEN LABEL
TREATMENT",2019-01-07,2022-01-04,1,1094,
Sample001,SE,1201003,1,SCRN,Screen,1,SCREENING,2019-01-10,2019-02-06,-27,1,
Sample001,SE,1201003,2,TRTZ,TRTMTA,2,"OPEN LABEL
TREATMENT",2019-02-06,2019-04-24,1,78,
Sample001,SE,1201003,3,FU,Follow-up,3,FOLLOW-UP,2019-04-24,2019-06-21,78,136,
