STUDYID,DOMAIN,USUBJID,VISITNUM,VISIT,EPOCH,SVSTDTC,SVENDTC,SVSTDY,SVENDY,SVUPDES
Sample001,SV,1201001,10000,SCREENING,SCREENING,2018-06-29,2018-08-06,-45,-7, 
Sample001,SV,1201001,10101,CYCLE1DAY1,SCREENING,2018-08-12,2018-08-13,-1,1, 
Sample001,SV,1201001,10102,CYCLE1DAY2,"OPEN LABEL
TREATMENT",2018-08-14,2018-08-14,2,2, 
Sample001,SV,1201001,10108,CYCLE1DAY8,"OPEN LABEL
TREATMENT",2018-08-20,2018-08-20,8,8, 
Sample001,SV,1201001,10109,CYCLE1DAY9,"OPEN LABEL
TREATMENT",2018-08-20,2018-08-21,8,9, 
Sample001,SV,1201001,10115,CYCLE1DAY15,"OPEN LABEL
TREATMENT",2018-08-27,2018-08-27,15,15, 
Sample001,SV,1201001,10116,CYCLE1DAY16,"OPEN LABEL
TREATMENT",2018-08-28,2018-08-28,16,16, 
Sample001,SV,1201001,10201,CYCLE2DAY1,"OPEN LABEL
TREATMENT",2018-09-03,2018-09-04,22,23, 
Sample001,SV,1201001,10208,CYCLE2DAY8,"OPEN LABEL
TREATMENT",2018-09-10,2018-09-10,29,29, 
Sample001,SV,1201001,10215,CYCLE2DAY15,"OPEN LABEL
TREATMENT",2018-09-17,2018-09-17,36,36, 
Sample001,SV,1201001,10301,CYCLE3DAY1,"OPEN LABEL
TREATMENT",2018-09-23,2018-09-24,42,43, 
Sample001,SV,1201001,10308,CYCLE3DAY8,"OPEN LABEL
TREATMENT",2018-10-02,2018-10-02,51,51, 
Sample001,SV,1201001,10315,CYCLE3DAY15,"OPEN LABEL
TREATMENT",2018-10-08,2018-10-09,57,58, 
Sample001,SV,1201001,10401,CYCLE4DAY1,"OPEN LABEL
TREATMENT",2018-10-15,2018-10-15,64,64, 
Sample001,SV,1201001,10408,CYCLE4DAY8,"OPEN LABEL
TREATMENT",2018-10-22,2018-10-22,71,71, 
Sample001,SV,1201001,10415,CYCLE4DAY15,"OPEN LABEL
TREATMENT",2018-10-29,2018-10-29,78,78, 
Sample001,SV,1201001,10501,CYCLE5DAY1,"OPEN LABEL
TREATMENT",2018-11-04,2018-11-05,84,85, 
Sample001,SV,1201001,10508,CYCLE5DAY8,"OPEN LABEL
TREATMENT",2018-11-12,2018-11-12,92,92, 
Sample001,SV,1201001,10515,CYCLE5DAY15,"OPEN LABEL
TREATMENT",2018-11-19,2018-11-19,99,99, 
Sample001,SV,1201001,10601,CYCLE6DAY1,"OPEN LABEL
TREATMENT",2018-11-26,2018-11-26,106,106, 
Sample001,SV,1201001,10608,CYCLE6DAY8,"OPEN LABEL
TREATMENT",2018-12-03,2018-12-03,113,113, 
Sample001,SV,1201001,10615,CYCLE6DAY15,"OPEN LABEL
TREATMENT",2018-12-10,2018-12-10,120,120, 
Sample001,SV,1201001,10701,CYCLE7DAY1,"OPEN LABEL
TREATMENT",2018-12-17,2018-12-17,127,127, 
Sample001,SV,1201001,10708,CYCLE7DAY8,"OPEN LABEL
TREATMENT",2018-12-24,2018-12-24,134,134, 
Sample001,SV,1201001,10715,CYCLE7DAY15,"OPEN LABEL
TREATMENT",2019-01-02,2019-01-02,143,143, 
Sample001,SV,1201001,10801,CYCLE8DAY1,"OPEN LABEL
TREATMENT",2019-01-07,2019-01-07,148,148, 
Sample001,SV,1201001,10808,CYCLE8DAY8,"OPEN LABEL
TREATMENT",2019-01-14,2019-01-14,155,155, 
Sample001,SV,1201001,10808.01,"UNSCHEDULED VISIT
10808.01","OPEN LABEL
TREATMENT",2019-01-20,2019-01-20,161,161, 
Sample001,SV,1201001,10815,CYCLE8DAY15,"OPEN LABEL
TREATMENT",2019-01-21,2019-01-21,162,162, 
Sample001,SV,1201001,10901,CYCLE9DAY1,"OPEN LABEL
TREATMENT",2019-01-29,2019-01-29,170,170, 
Sample001,SV,1201001,10908,CYCLE9DAY8,"OPEN LABEL
TREATMENT",2019-02-04,2019-02-04,176,176, 
Sample001,SV,1201001,10915,CYCLE9DAY15,"OPEN LABEL
TREATMENT",2019-02-11,2019-02-11,183,183, 
Sample001,SV,1201001,11001,CYCLE10DAY1,"OPEN LABEL
TREATMENT",2019-02-18,2019-02-18,190,190, 
Sample001,SV,1201001,11008,CYCLE10DAY8,"OPEN LABEL
TREATMENT",2019-02-25,2019-02-25,197,197, 
Sample001,SV,1201001,11015,CYCLE10DAY15,"OPEN LABEL
TREATMENT",2019-03-04,2019-03-04,204,204, 
Sample001,SV,1201001,11101,CYCLE11DAY1,"OPEN LABEL
TREATMENT",2019-03-11,2019-03-11,211,211, 
Sample001,SV,1201001,11108,CYCLE11DAY8,"OPEN LABEL
TREATMENT",2019-03-18,2019-03-18,218,218, 
Sample001,SV,1201001,11115,CYCLE11DAY15,"OPEN LABEL
TREATMENT",2019-03-25,2019-03-25,225,225, 
Sample001,SV,1201001,11201,CYCLE12DAY1,"OPEN LABEL
TREATMENT",2019-04-01,2019-04-01,232,232, 
Sample001,SV,1201001,11208,CYCLE12DAY8,"OPEN LABEL
TREATMENT",2019-04-08,2019-04-08,239,239, 
Sample001,SV,1201001,11215,CYCLE12DAY15,"OPEN LABEL
TREATMENT",2019-04-15,2019-04-15,246,246, 
Sample001,SV,1201001,11301,CYCLE13DAY1,"OPEN LABEL
TREATMENT",2019-04-22,2019-04-23,253,254, 
Sample001,SV,1201001,80000,END OF TREATMENT,"OPEN LABEL
TREATMENT",2019-04-28,2019-04-29,259,260, 
Sample001,SV,1201001,81000,"90-DAY SAFETY
FOLLOW-UP",FOLLOW-UP,2019-07-22,2019-07-22,344,344, 
Sample001,SV,1201001,83090,"SURVIVAL FOLLOW-UP
DAY 90",FOLLOW-UP,2019-10-22,2019-10-22,436,436, 
Sample001,SV,1201001,84000,SURVIVAL FOLLOW-UP,FOLLOW-UP,2019-05-20,2020-03-30,281,596, 
Sample001,SV,1201001,91012,C1D1+12 WEEKS,"OPEN LABEL
TREATMENT",2018-11-06,2018-11-06,86,86, 
Sample001,SV,1201001,91024,C1D1+24 WEEKS,"OPEN LABEL
TREATMENT",2019-01-30,2019-01-30,171,171, 
Sample001,SV,1201001,91036,C1D1+36 WEEKS,"OPEN LABEL
TREATMENT",2019-02-28,2019-04-24,200,255, 
Sample001,SV,1201001,91048,C1D1+48 WEEKS,"OPEN LABEL
TREATMENT",2019-04-24,2019-04-24,255,255, 
Sample001,SV,1201001,99999,"4-WEEK F/U TO CONFIRM
PR, CR, PD","OPEN LABEL
TREATMENT",2019-02-28,2019-02-28,200,200, 
Sample001,SV,1201002,10000,SCREENING,SCREENING,2018-11-20,2018-12-21,-48,-17, 
Sample001,SV,1201002,10101,CYCLE1DAY1,SCREENING,2019-01-06,2019-01-07,-1,1, 
Sample001,SV,1201002,10102,CYCLE1DAY2,"OPEN LABEL
TREATMENT",2019-01-08,2019-01-08,2,2, 
Sample001,SV,1201002,10108,CYCLE1DAY8,"OPEN LABEL
TREATMENT",2019-01-14,2019-01-14,8,8, 
Sample001,SV,1201002,10109,CYCLE1DAY9,"OPEN LABEL
TREATMENT",2019-01-15,2019-01-15,9,9, 
Sample001,SV,1201002,10115,CYCLE1DAY15,"OPEN LABEL
TREATMENT",2019-01-21,2019-01-22,15,16, 
Sample001,SV,1201002,10116,CYCLE1DAY16,"OPEN LABEL
TREATMENT",2019-01-22,2019-01-22,16,16, 
Sample001,SV,1201002,10201,CYCLE2DAY1,"OPEN LABEL
TREATMENT",2019-01-28,2019-01-29,22,23, 
Sample001,SV,1201002,10208,CYCLE2DAY8,"OPEN LABEL
TREATMENT",2019-02-04,2019-02-05,29,30, 
Sample001,SV,1201002,10215,CYCLE2DAY15,"OPEN LABEL
TREATMENT",2019-02-11,2019-02-12,36,37, 
Sample001,SV,1201002,10301,CYCLE3DAY1,"OPEN LABEL
TREATMENT",2019-02-18,2019-02-19,43,44, 
Sample001,SV,1201002,10308,CYCLE3DAY8,"OPEN LABEL
TREATMENT",2019-02-25,2019-02-26,50,51, 
Sample001,SV,1201002,10315,CYCLE3DAY15,"OPEN LABEL
TREATMENT",2019-03-04,2019-03-05,57,58, 
Sample001,SV,1201002,10401,CYCLE4DAY1,"OPEN LABEL
TREATMENT",2019-03-11,2019-03-12,64,65, 
Sample001,SV,1201002,10408,CYCLE4DAY8,"OPEN LABEL
TREATMENT",2019-03-18,2019-03-19,71,72, 
Sample001,SV,1201002,10415,CYCLE4DAY15,"OPEN LABEL
TREATMENT",2019-03-25,2019-03-26,78,79, 
Sample001,SV,1201002,10501,CYCLE5DAY1,"OPEN LABEL
TREATMENT",2019-04-01,2019-04-02,85,86, 
Sample001,SV,1201002,10508,CYCLE5DAY8,"OPEN LABEL
TREATMENT",2019-04-08,2019-04-09,92,93, 
Sample001,SV,1201002,10515,CYCLE5DAY15,"OPEN LABEL
TREATMENT",2019-04-15,2019-04-16,99,100, 
Sample001,SV,1201002,10601,CYCLE6DAY1,"OPEN LABEL
TREATMENT",2019-04-22,2019-04-23,106,107, 
Sample001,SV,1201002,10608,CYCLE6DAY8,"OPEN LABEL
TREATMENT",2019-04-29,2019-04-30,113,114, 
Sample001,SV,1201002,10615,CYCLE6DAY15,"OPEN LABEL
TREATMENT",2019-05-06,2019-05-07,120,121, 
Sample001,SV,1201002,10701,CYCLE7DAY1,"OPEN LABEL
TREATMENT",2019-05-13,2019-05-14,127,128, 
Sample001,SV,1201002,10708,CYCLE7DAY8,"OPEN LABEL
TREATMENT",2019-05-20,2019-05-21,134,135, 
Sample001,SV,1201002,10708.01,"UNSCHEDULED VISIT
10708.01","OPEN LABEL
TREATMENT",2019-05-21,2019-05-21,135,135,Pregnancy Test
Sample001,SV,1201002,10715,CYCLE7DAY15,"OPEN LABEL
TREATMENT",2019-05-27,2019-05-28,141,142, 
Sample001,SV,1201002,10801,CYCLE8DAY1,"OPEN LABEL
TREATMENT",2019-06-03,2019-06-04,148,149, 
Sample001,SV,1201002,10808,CYCLE8DAY8,"OPEN LABEL
TREATMENT",2019-06-10,2019-06-11,155,156, 
Sample001,SV,1201002,10815,CYCLE8DAY15,"OPEN LABEL
TREATMENT",2019-06-17,2019-06-18,162,163, 
Sample001,SV,1201002,10815.01,"UNSCHEDULED VISIT
10815.01","OPEN LABEL
TREATMENT",2019-06-17,2019-06-17,162,162,Pregnancy Test
Sample001,SV,1201002,10901,CYCLE9DAY1,"OPEN LABEL
TREATMENT",2019-06-24,2019-06-25,169,170, 
Sample001,SV,1201002,10908,CYCLE9DAY8,"OPEN LABEL
TREATMENT",2019-07-01,2019-07-02,176,177, 
Sample001,SV,1201002,10915,CYCLE9DAY15,"OPEN LABEL
TREATMENT",2019-07-08,2019-07-09,183,184, 
Sample001,SV,1201002,11001,CYCLE10DAY1,"OPEN LABEL
TREATMENT",2019-07-15,2019-07-16,190,191, 
Sample001,SV,1201002,11008,CYCLE10DAY8,"OPEN LABEL
TREATMENT",2019-07-22,2019-07-23,197,198, 
Sample001,SV,1201002,11015,CYCLE10DAY15,"OPEN LABEL
TREATMENT",2019-07-29,2019-07-30,204,205, 
Sample001,SV,1201002,11101,CYCLE11DAY1,"OPEN LABEL
TREATMENT",2019-08-05,2019-08-06,211,212, 
Sample001,SV,1201002,11108,CYCLE11DAY8,"OPEN LABEL
TREATMENT",2019-08-12,2019-08-13,218,219, 
Sample001,SV,1201002,11115,CYCLE11DAY15,"OPEN LABEL
TREATMENT",2019-08-19,2019-08-20,225,226, 
Sample001,SV,1201002,11201,CYCLE12DAY1,"OPEN LABEL
TREATMENT",2019-08-26,2019-08-27,232,233, 
Sample001,SV,1201002,11201.01,"UNSCHEDULED VISIT
11201.01","OPEN LABEL
TREATMENT",2019-08-26,2019-08-26,232,232,Pregnancy Test
Sample001,SV,1201002,11208,CYCLE12DAY8,"OPEN LABEL
TREATMENT",2019-09-02,2019-09-03,239,240, 
Sample001,SV,1201002,11215,CYCLE12DAY15,"OPEN LABEL
TREATMENT",2019-09-09,2019-09-10,246,247, 
Sample001,SV,1201002,11301,CYCLE13DAY1,"OPEN LABEL
TREATMENT",2019-09-16,2019-09-17,253,254, 
Sample001,SV,1201002,11301.01,"UNSCHEDULED VISIT
11301.01","OPEN LABEL
TREATMENT",2019-09-22,2019-09-22,259,259, 
Sample001,SV,1201002,11308,CYCLE13DAY8,"OPEN LABEL
TREATMENT",2019-09-23,2019-09-24,260,261, 
Sample001,SV,1201002,11315,CYCLE13DAY15,"OPEN LABEL
TREATMENT",2019-09-30,2019-10-01,267,268, 
Sample001,SV,1201002,11401,CYCLE14DAY1,"OPEN LABEL
TREATMENT",2019-10-07,2019-10-08,274,275, 
Sample001,SV,1201002,11408,CYCLE14DAY8,"OPEN LABEL
TREATMENT",2019-10-14,2019-10-15,281,282, 
Sample001,SV,1201002,11415,CYCLE14DAY15,"OPEN LABEL
TREATMENT",2019-10-21,2019-10-22,288,289, 
Sample001,SV,1201002,11501,CYCLE15DAY1,"OPEN LABEL
TREATMENT",2019-10-28,2019-10-29,295,296, 
Sample001,SV,1201002,11501.01,"UNSCHEDULED VISIT
11501.01","OPEN LABEL
TREATMENT",2019-10-28,2019-10-28,295,295,Pregnancy Test
Sample001,SV,1201002,11508,CYCLE15DAY8,"OPEN LABEL
TREATMENT",2019-11-04,2019-11-05,302,303, 
Sample001,SV,1201002,11515,CYCLE15DAY15,"OPEN LABEL
TREATMENT",2019-11-11,2019-11-12,309,310, 
Sample001,SV,1201002,11601,CYCLE16DAY1,"OPEN LABEL
TREATMENT",2019-11-18,2019-11-19,316,317, 
Sample001,SV,1201002,11608,CYCLE16DAY8,"OPEN LABEL
TREATMENT",2019-11-25,2019-11-26,323,324, 
Sample001,SV,1201002,11608.01,"UNSCHEDULED VISIT
11608.01","OPEN LABEL
TREATMENT",2019-11-25,2019-11-25,323,323,Pregnancy Test
Sample001,SV,1201002,11615,CYCLE16DAY15,"OPEN LABEL
TREATMENT",2019-12-02,2019-12-03,330,331, 
Sample001,SV,1201002,11701,CYCLE17DAY1,"OPEN LABEL
TREATMENT",2019-12-09,2019-12-10,337,338, 
Sample001,SV,1201002,11708,CYCLE17DAY8,"OPEN LABEL
TREATMENT",2019-12-16,2019-12-17,344,345, 
Sample001,SV,1201002,11715,CYCLE17DAY15,"OPEN LABEL
TREATMENT",2019-12-23,2019-12-24,351,352, 
Sample001,SV,1201002,11801,CYCLE18DAY1,"OPEN LABEL
TREATMENT",2019-12-30,2019-12-30,358,358, 
Sample001,SV,1201002,11808,CYCLE18DAY8,"OPEN LABEL
TREATMENT",2020-01-06,2020-01-07,365,366, 
Sample001,SV,1201002,11815,CYCLE18DAY15,"OPEN LABEL
TREATMENT",2020-01-13,2020-01-14,372,373, 
Sample001,SV,1201002,11901,CYCLE19DAY1,"OPEN LABEL
TREATMENT",2020-01-20,2020-01-21,379,380, 
Sample001,SV,1201002,11908,CYCLE19DAY8,"OPEN LABEL
TREATMENT",2020-01-26,2020-01-28,385,387, 
Sample001,SV,1201002,11915,CYCLE19DAY15,"OPEN LABEL
TREATMENT",2020-02-03,2020-02-04,393,394, 
Sample001,SV,1201002,12001,CYCLE20DAY1,"OPEN LABEL
TREATMENT",2020-02-10,2020-02-13,400,403, 
Sample001,SV,1201002,12008,CYCLE20DAY8,"OPEN LABEL
TREATMENT",2020-02-17,2020-02-18,407,408, 
Sample001,SV,1201002,12015,CYCLE20DAY15,"OPEN LABEL
TREATMENT",2020-02-24,2020-02-25,414,415, 
Sample001,SV,1201002,12101,CYCLE21DAY1,"OPEN LABEL
TREATMENT",2020-03-02,2020-03-03,421,422, 
Sample001,SV,1201002,12108,CYCLE21DAY8,"OPEN LABEL
TREATMENT",2020-03-09,2020-03-10,428,429, 
Sample001,SV,1201002,12115,CYCLE21DAY15,"OPEN LABEL
TREATMENT",2020-03-16,2020-03-17,435,436, 
Sample001,SV,1201002,12201,CYCLE22DAY1,"OPEN LABEL
TREATMENT",2020-03-23,2020-03-24,442,443, 
Sample001,SV,1201002,12208,CYCLE22DAY8,"OPEN LABEL
TREATMENT",2020-03-30,2020-03-31,449,450, 
Sample001,SV,1201002,12215,CYCLE22DAY15,"OPEN LABEL
TREATMENT",2020-04-06,2020-04-07,456,457, 
Sample001,SV,1201002,12301,CYCLE23DAY1,"OPEN LABEL
TREATMENT",2020-04-13,2020-04-14,463,464, 
Sample001,SV,1201002,12308,CYCLE23DAY8,"OPEN LABEL
TREATMENT",2020-04-20,2020-04-21,470,471, 
Sample001,SV,1201002,12315,CYCLE23DAY15,"OPEN LABEL
TREATMENT",2020-04-27,2020-04-28,477,478, 
Sample001,SV,1201002,12401,CYCLE24DAY1,"OPEN LABEL
TREATMENT",2020-05-04,2020-05-05,484,485, 
Sample001,SV,1201002,12408,CYCLE24DAY8,"OPEN LABEL
TREATMENT",2020-05-11,2020-05-12,491,492, 
Sample001,SV,1201002,12415,CYCLE24DAY15,"OPEN LABEL
TREATMENT",2020-05-18,2020-05-19,498,499, 
Sample001,SV,1201002,12501,CYCLE25DAY1,"OPEN LABEL
TREATMENT",2020-05-25,2020-05-26,505,506, 
Sample001,SV,1201002,12508,CYCLE25DAY8,"OPEN LABEL
TREATMENT",2020-06-01,2020-06-02,512,513, 
Sample001,SV,1201002,12515,CYCLE25DAY15,"OPEN LABEL
TREATMENT",2020-06-08,2020-06-11,519,522, 
Sample001,SV,1201002,12601,CYCLE26DAY1,"OPEN LABEL
TREATMENT",2020-06-15,2020-06-16,526,527, 
Sample001,SV,1201002,12608,CYCLE26DAY8,"OPEN LABEL
TREATMENT",2020-06-22,2020-06-23,533,534, 
Sample001,SV,1201002,12615,CYCLE26DAY15,"OPEN LABEL
TREATMENT",2020-06-29,2020-06-30,540,541, 
Sample001,SV,1201002,12701,CYCLE27DAY1,"OPEN LABEL
TREATMENT",2020-07-06,2020-07-07,547,548, 
Sample001,SV,1201002,12708,CYCLE27DAY8,"OPEN LABEL
TREATMENT",2020-07-13,2020-07-14,554,555, 
Sample001,SV,1201002,12715,CYCLE27DAY15,"OPEN LABEL
TREATMENT",2020-07-20,2020-07-21,561,562, 
Sample001,SV,1201002,12801,CYCLE28DAY1,"OPEN LABEL
TREATMENT",2020-07-27,2020-07-28,568,569, 
Sample001,SV,1201002,12808,CYCLE28DAY8,"OPEN LABEL
TREATMENT",2020-08-03,2020-08-04,575,576, 
Sample001,SV,1201002,12815,CYCLE28DAY15,"OPEN LABEL
TREATMENT",2020-08-10,2020-08-11,582,583, 
Sample001,SV,1201002,12901,CYCLE29DAY1,"OPEN LABEL
TREATMENT",2020-08-17,2020-08-18,589,590, 
Sample001,SV,1201002,12908,CYCLE29DAY8,"OPEN LABEL
TREATMENT",2020-08-24,2020-08-25,596,597, 
Sample001,SV,1201002,12915,CYCLE29DAY15,"OPEN LABEL
TREATMENT",2020-08-31,2020-09-01,603,604, 
Sample001,SV,1201002,13001,CYCLE30DAY1,"OPEN LABEL
TREATMENT",2020-09-07,2020-09-08,610,611, 
Sample001,SV,1201002,13008,CYCLE30DAY8,"OPEN LABEL
TREATMENT",2020-09-14,2020-09-15,617,618, 
Sample001,SV,1201002,13015,CYCLE30DAY15,"OPEN LABEL
TREATMENT",2020-09-21,2020-09-22,624,625, 
Sample001,SV,1201002,13101,CYCLE31DAY1,"OPEN LABEL
TREATMENT",2020-09-28,2020-09-29,631,632, 
Sample001,SV,1201002,13108,CYCLE31DAY8,"OPEN LABEL
TREATMENT",2020-10-05,2020-10-06,638,639, 
Sample001,SV,1201002,13115,CYCLE31DAY15,"OPEN LABEL
TREATMENT",2020-10-12,2020-10-13,645,646, 
Sample001,SV,1201002,13201,CYCLE32DAY1,"OPEN LABEL
TREATMENT",2020-10-19,2020-10-20,652,653, 
Sample001,SV,1201002,13208,CYCLE32DAY8,"OPEN LABEL
TREATMENT",2020-10-26,2020-10-27,659,660, 
Sample001,SV,1201002,13215,CYCLE32DAY15,"OPEN LABEL
TREATMENT",2020-11-02,2020-11-03,666,667, 
Sample001,SV,1201002,13301,CYCLE33DAY1,"OPEN LABEL
TREATMENT",2020-11-09,2020-11-10,673,674, 
Sample001,SV,1201002,13301.01,"UNSCHEDULED VISIT
13301.01","OPEN LABEL
TREATMENT",2020-11-09,2020-11-09,673,673, 
Sample001,SV,1201002,13308,CYCLE33DAY8,"OPEN LABEL
TREATMENT",2020-11-16,2020-11-17,680,681, 
Sample001,SV,1201002,13315,CYCLE33DAY15,"OPEN LABEL
TREATMENT",2020-11-23,2020-11-24,687,688, 
Sample001,SV,1201002,13401,CYCLE34DAY1,"OPEN LABEL
TREATMENT",2020-11-30,2020-12-01,694,695, 
Sample001,SV,1201002,13408,CYCLE34DAY8,"OPEN LABEL
TREATMENT",2020-12-07,2020-12-08,701,702, 
Sample001,SV,1201002,13415,CYCLE34DAY15,"OPEN LABEL
TREATMENT",2020-12-14,2020-12-15,708,709, 
Sample001,SV,1201002,13501,CYCLE35DAY1,"OPEN LABEL
TREATMENT",2020-12-21,2020-12-22,715,716, 
Sample001,SV,1201002,13508,CYCLE35DAY8,"OPEN LABEL
TREATMENT",2020-12-28,2020-12-29,722,723, 
Sample001,SV,1201002,13515,CYCLE35DAY15,"OPEN LABEL
TREATMENT",2021-01-04,2021-01-05,729,730, 
Sample001,SV,1201002,13601,CYCLE36DAY1,"OPEN LABEL
TREATMENT",2021-01-11,2021-01-12,736,737, 
Sample001,SV,1201002,13608,CYCLE36DAY8,"OPEN LABEL
TREATMENT",2021-01-18,2021-01-19,743,744, 
Sample001,SV,1201002,13615,CYCLE36DAY15,"OPEN LABEL
TREATMENT",2021-01-23,2021-01-25,748,750, 
Sample001,SV,1201002,13701,CYCLE37DAY1,"OPEN LABEL
TREATMENT",2021-02-01,2021-02-02,757,758, 
Sample001,SV,1201002,13701.01,"UNSCHEDULED VISIT
13701.01","OPEN LABEL
TREATMENT",2021-02-01,2021-02-01,757,757, 
Sample001,SV,1201002,13708,CYCLE37DAY8,"OPEN LABEL
TREATMENT",2021-02-08,2021-02-09,764,765, 
Sample001,SV,1201002,13715,CYCLE37DAY15,"OPEN LABEL
TREATMENT",2021-02-15,2021-02-16,771,772, 
Sample001,SV,1201002,13801,CYCLE38DAY1,"OPEN LABEL
TREATMENT",2021-02-22,2021-02-23,778,779, 
Sample001,SV,1201002,13808,CYCLE38DAY8,"OPEN LABEL
TREATMENT",2021-03-01,2021-03-02,785,786, 
Sample001,SV,1201002,13815,CYCLE38DAY15,"OPEN LABEL
TREATMENT",2021-03-08,2021-03-09,792,793, 
Sample001,SV,1201002,13901,CYCLE39DAY1,"OPEN LABEL
TREATMENT",2021-03-15,2021-03-16,799,800, 
Sample001,SV,1201002,13908,CYCLE39DAY8,"OPEN LABEL
TREATMENT",2021-03-22,2021-03-23,806,807, 
Sample001,SV,1201002,13915,CYCLE39DAY15,"OPEN LABEL
TREATMENT",2021-03-29,2021-03-30,813,814, 
Sample001,SV,1201002,14001,CYCLE40DAY1,"OPEN LABEL
TREATMENT",2021-04-05,2021-04-06,820,821, 
Sample001,SV,1201002,14008,CYCLE40DAY8,"OPEN LABEL
TREATMENT",2021-04-12,2021-04-13,827,828, 
Sample001,SV,1201002,14015,CYCLE40DAY15,"OPEN LABEL
TREATMENT",2021-04-19,2021-04-20,834,835, 
Sample001,SV,1201002,14101,CYCLE41DAY1,"OPEN LABEL
TREATMENT",2021-04-26,2021-04-27,841,842, 
Sample001,SV,1201002,14101.01,"UNSCHEDULED VISIT
14101.01","OPEN LABEL
TREATMENT",2021-04-26,2021-04-26,841,841, 
Sample001,SV,1201002,14108,CYCLE41DAY8,"OPEN LABEL
TREATMENT",2021-05-03,2021-05-04,848,849, 
Sample001,SV,1201002,14115,CYCLE41DAY15,"OPEN LABEL
TREATMENT",2021-05-10,2021-05-11,855,856, 
Sample001,SV,1201002,14201,CYCLE42DAY1,"OPEN LABEL
TREATMENT",2021-05-17,2021-05-18,862,863, 
Sample001,SV,1201002,14208,CYCLE42DAY8,"OPEN LABEL
TREATMENT",2021-05-24,2021-05-25,869,870, 
Sample001,SV,1201002,14215,CYCLE42DAY15,"OPEN LABEL
TREATMENT",2021-05-31,2021-06-01,876,877, 
Sample001,SV,1201002,14301,CYCLE43DAY1,"OPEN LABEL
TREATMENT",2021-06-07,2021-06-08,883,884, 
Sample001,SV,1201002,14308,CYCLE43DAY8,"OPEN LABEL
TREATMENT",2021-06-14,2021-06-15,890,891, 
Sample001,SV,1201002,14315,CYCLE43DAY15,"OPEN LABEL
TREATMENT",2021-06-21,2021-06-22,897,898, 
Sample001,SV,1201002,14401,CYCLE44DAY1,"OPEN LABEL
TREATMENT",2021-06-28,2021-06-29,904,905, 
Sample001,SV,1201002,14408,CYCLE44DAY8,"OPEN LABEL
TREATMENT",2021-07-05,2021-07-06,911,912, 
Sample001,SV,1201002,14415,CYCLE44DAY15,"OPEN LABEL
TREATMENT",2021-07-12,2021-07-13,918,919, 
Sample001,SV,1201002,14501,CYCLE45DAY1,"OPEN LABEL
TREATMENT",2021-07-19,2021-07-20,925,926, 
Sample001,SV,1201002,14508,CYCLE45DAY8,"OPEN LABEL
TREATMENT",2021-07-26,2021-07-27,932,933, 
Sample001,SV,1201002,14515,CYCLE45DAY15,"OPEN LABEL
TREATMENT",2021-08-02,2021-08-03,939,940, 
Sample001,SV,1201002,14601,CYCLE46DAY1,"OPEN LABEL
TREATMENT",2021-08-09,2021-08-10,946,947, 
Sample001,SV,1201002,14608,CYCLE46DAY8,"OPEN LABEL
TREATMENT",2021-08-16,2021-08-17,953,954, 
Sample001,SV,1201002,14615,CYCLE46DAY15,"OPEN LABEL
TREATMENT",2021-08-23,2021-08-24,960,961, 
Sample001,SV,1201002,14701,CYCLE47DAY1,"OPEN LABEL
TREATMENT",2021-08-30,2021-08-31,967,968, 
Sample001,SV,1201002,14708,CYCLE47DAY8,"OPEN LABEL
TREATMENT",2021-09-06,2021-09-07,974,975, 
Sample001,SV,1201002,14715,CYCLE47DAY15,"OPEN LABEL
TREATMENT",2021-09-13,2021-09-14,981,982, 
Sample001,SV,1201002,14801,CYCLE48DAY1,"OPEN LABEL
TREATMENT",2021-09-20,2021-09-21,988,989, 
Sample001,SV,1201002,14808,CYCLE48DAY8,"OPEN LABEL
TREATMENT",2021-09-27,2021-09-28,995,996, 
Sample001,SV,1201002,14815,CYCLE48DAY15,"OPEN LABEL
TREATMENT",2021-10-05,2021-10-06,1003,1004, 
Sample001,SV,1201002,14901,CYCLE49DAY1,"OPEN LABEL
TREATMENT",2021-10-11,2021-10-12,1009,1010, 
Sample001,SV,1201002,14901.01,"UNSCHEDULED VISIT
14901.01","OPEN LABEL
TREATMENT",2021-10-11,2021-10-11,1009,1009, 
Sample001,SV,1201002,14908,CYCLE49DAY8,"OPEN LABEL
TREATMENT",2021-10-18,2021-10-19,1016,1017, 
Sample001,SV,1201002,14915,CYCLE49DAY15,"OPEN LABEL
TREATMENT",2021-10-25,2021-10-26,1023,1024, 
Sample001,SV,1201002,15001,CYCLE50DAY1,"OPEN LABEL
TREATMENT",2021-11-01,2021-11-02,1030,1031, 
Sample001,SV,1201002,15008,CYCLE50DAY8,"OPEN LABEL
TREATMENT",2021-11-08,2021-11-09,1037,1038, 
Sample001,SV,1201002,15015,CYCLE50DAY15,"OPEN LABEL
TREATMENT",2021-11-15,2021-11-16,1044,1045, 
Sample001,SV,1201002,15101,CYCLE51DAY1,"OPEN LABEL
TREATMENT",2021-11-22,2021-11-23,1051,1052, 
Sample001,SV,1201002,15108,CYCLE51DAY8,"OPEN LABEL
TREATMENT",2021-11-29,2021-11-30,1058,1059, 
Sample001,SV,1201002,15115,CYCLE51DAY15,"OPEN LABEL
TREATMENT",2021-12-06,2021-12-07,1065,1066, 
Sample001,SV,1201002,15201,CYCLE52DAY1,"OPEN LABEL
TREATMENT",2021-12-13,2021-12-14,1072,1073, 
Sample001,SV,1201002,15208,CYCLE52DAY8,"OPEN LABEL
TREATMENT",2021-12-20,2021-12-21,1079,1080, 
Sample001,SV,1201002,15215,CYCLE52DAY15,"OPEN LABEL
TREATMENT",2021-12-28,2021-12-29,1087,1088, 
Sample001,SV,1201002,15301,CYCLE53DAY1,"OPEN LABEL
TREATMENT",2022-01-02,2022-01-04,1092,1094, 
Sample001,SV,1201002,91012,C1D1+12 WEEKS,"OPEN LABEL
TREATMENT",2019-04-01,2019-04-01,85,85, 
Sample001,SV,1201002,91024,C1D1+24 WEEKS,"OPEN LABEL
TREATMENT",2019-06-17,2019-06-17,162,162, 
Sample001,SV,1201002,91036,C1D1+36 WEEKS,"OPEN LABEL
TREATMENT",2019-09-23,2019-09-23,260,260, 
Sample001,SV,1201002,91048,C1D1+48 WEEKS,"OPEN LABEL
TREATMENT",2019-12-09,2019-12-09,337,337, 
Sample001,SV,1201002,91060,C1D1+60 WEEKS,"OPEN LABEL
TREATMENT",2020-03-02,2020-03-02,421,421, 
Sample001,SV,1201002,91072,C1D1+72 WEEKS,"OPEN LABEL
TREATMENT",2020-05-26,2020-05-26,506,506, 
Sample001,SV,1201002,91072.01,"UNSCHEDULED VISIT
91072.01","OPEN LABEL
TREATMENT",2020-07-07,2020-07-07,548,548,"Tumor Assessment - Target Lesions, Evaluation of Overall Lesion Response"
Sample001,SV,1201002,91084,C1D1+84 WEEKS,"OPEN LABEL
TREATMENT",2020-08-25,2020-08-25,597,597, 
Sample001,SV,1201002,91096,C1D1+96 WEEKS,"OPEN LABEL
TREATMENT",2020-11-10,2020-11-10,674,674, 
Sample001,SV,1201002,91108,C1D1+108 WEEKS,"OPEN LABEL
TREATMENT",2021-02-02,2021-02-02,758,758, 
Sample001,SV,1201002,91120,C1D1+120 WEEKS,"OPEN LABEL
TREATMENT",2021-04-27,2021-04-27,842,842, 
Sample001,SV,1201002,91132,C1D1+132 WEEKS,"OPEN LABEL
TREATMENT",2021-07-20,2021-07-20,926,926, 
Sample001,SV,1201002,91144,C1D1+144 WEEKS,"OPEN LABEL
TREATMENT",2021-09-28,2021-09-28,996,996, 
Sample001,SV,1201003,10000,SCREENING,SCREENING,2019-01-10,2019-01-24,-27,-13, 
Sample001,SV,1201003,10101,CYCLE1DAY1,SCREENING,2019-02-05,2019-02-07,-1,2, 
Sample001,SV,1201003,10102,CYCLE1DAY2,"OPEN LABEL
TREATMENT",2019-02-07,2019-02-07,2,2, 
Sample001,SV,1201003,10108,CYCLE1DAY8,"OPEN LABEL
TREATMENT",2019-02-12,2019-02-13,7,8, 
Sample001,SV,1201003,10109,CYCLE1DAY9,"OPEN LABEL
TREATMENT",2019-02-14,2019-02-14,9,9, 
Sample001,SV,1201003,10115,CYCLE1DAY15,"OPEN LABEL
TREATMENT",2019-02-19,2019-02-20,14,15, 
Sample001,SV,1201003,10116,CYCLE1DAY16,"OPEN LABEL
TREATMENT",2019-02-21,2019-02-21,16,16, 
Sample001,SV,1201003,10201,CYCLE2DAY1,"OPEN LABEL
TREATMENT",2019-02-26,2019-02-27,21,22, 
Sample001,SV,1201003,10208,CYCLE2DAY8,"OPEN LABEL
TREATMENT",2019-03-05,2019-03-06,28,29, 
Sample001,SV,1201003,10215,CYCLE2DAY15,"OPEN LABEL
TREATMENT",2019-03-12,2019-03-13,35,36, 
Sample001,SV,1201003,10301,CYCLE3DAY1,"OPEN LABEL
TREATMENT",2019-03-19,2019-03-20,42,43, 
Sample001,SV,1201003,10308,CYCLE3DAY8,"OPEN LABEL
TREATMENT",2019-03-26,2019-03-27,49,50, 
Sample001,SV,1201003,10315,CYCLE3DAY15,"OPEN LABEL
TREATMENT",2019-04-02,2019-04-03,56,57, 
Sample001,SV,1201003,80000,END OF TREATMENT,"OPEN LABEL
TREATMENT",2019-04-10,2019-04-11,64,65, 
Sample001,SV,1201003,84000,SURVIVAL FOLLOW-UP,FOLLOW-UP,2019-05-10,2019-06-21,94,136, 
Sample001,SV,1201003,91000.01,"UNSCHEDULED VISIT
91000.01","OPEN LABEL
TREATMENT",2019-04-10,2019-04-10,64,64,"Tumor Assessment - New Lesions, Tumor Assessment - Non Target Lesions, Tumor Assessment - Target Lesions, Evaluation
of Overall Lesion Response, Tumor Assessment - New Lesions Non-Measurable"
