STUDYID,DOMAIN,USUBJID,EXSEQ,EXTRT,EXDOSE,EXDOSU,EXPRESP,EXOCCUR,EXSTAT
CDISCPILOT01,EX,CDISC001,1,ZANOMALINE,54,mg,Y,N,
CDISCPILOT01,EX,CDISC001,2,ZANOMALINE,54,mg,Y,Y,
CDISCPILOT01,EX,CDISC001,3,ZANOMALINE,54,mg,Y,N,
CDISCPILOT01,EX,CDISC001,4,ZANOMALINE,54,mg,Y,Y,
