STUDYID,DOMAIN,USUBJID,MHSEQ,MHTERM,MHPRESP,MHOCCUR,MHSTAT
CDISCPILOT01,MH,CDISC001,1,ASTHMA,Y,,NOT DONE
CDISCPILOT01,MH,CDISC001,2,CONGESTIVE HEART FAILURE,Y,,NOT DONE
CDISCPILOT01,MH,CDISC001,3,BROKEN LEG,Y,Y,
