STUDYID,DOMAIN,USUBJID,CMSEQ,CMTRT,CMINDC,CMDOSE,CMDOSU,CMDOSFRQ,CMROUTE,EPOCH,CMSTDTC,CMSTDY,CMENDY,CMSTRTPT,CMSTTPT,CMENRTPT,CMENTPT
CDISCPILOT01,CM,.a.a.,1,ASPIRIN,PROPHYLAXIS OR NON-THERAPEUTIC USE,1,TABLET,QD,ORAL,SCREENING,2011,,151,BEFORE,SCREENING,,
CDISCPILOT01,CM,CDISC001,2,METAMUCIL,PROPHYLAXIS OR NON-THERAPEUTIC USE,1,a…,PRN,ORAL,SCREENING,2012-08,,,,,ONGOING,
CDISCPILOT01,CM,@.,3,"HYDROCORTISONE, TOPICAL",PROPHYLAXIS OR NON-THERAPEUTIC USE,1,TABLET,BID,TOPICAL,TREATMENT,é…,43,,BEFORE,SCREENING,ONGOING,
CDISCPILOT01,CM,CDISC001,4,.a,PROPHYLAXIS OR NON-THERAPEUTIC USE,2,TABLET,Q4H,ORAL,TREATMENT,2013-04-19,141,166,,,,
