STUDYID,RDOMAIN,USUBJID,IDVAR,IDVARVAL,QNAM,QLABEL,QVAL,QORIG,QEVAL
CDISCPILOT01,LB,CDISC008,LBSEQ,4,LBCLSIG,Clinically Significant,Y,CRF,
CDISCPILOT01,LB,CDISC008,LBSEQ,6,LBCLSIG,Clinically Significant,N,CRF,
CDISCPILOT01,LB,CDISC008,LBSEQ,1,LBCLSIG,Clinically Significant,Y,CRF,
CDISCPILOT02,LB,CDISC009,LBSEQ,2,LBCLSIG,Clinically Significant,N,CRF,
