STUDYID,DOMAIN,USUBJID,FASEQ,FALNKGRP,FATESTCD,FATEST,FAOBJ,FACAT,FAORRES,FASTRESC,FALOC,VISITNUM,EPOCH,FADTC,FADY
CDISCPILOT01,FA,CDISC001,1,1,OCCUR,Occurrence Indicator,OMEPRAZOLE,INJECTION SITE REACTION,Y,Y,ARM,,TREATMENT,2012-12-02,3
CDISCPILOT01,FA,CDISC001,4,1,OCCUR,Occurrence Indicator,OMEPRAZOLE,INJECTION SITE REACTION,N,N,ARM,,TREATMENT,2012-12-02,3
