STUDYID,DOMAIN,USUBJID,CMSEQ,CMTRT,CMINDC,CMDOSE,CMDOSU,CMDOSFRQ,CMROUTE,EPOCH,CMSTDTC,CMENDTC,CMSTDY,CMENDY,CMSTRF,CMENRF
CDISCPILOT01,CM,CDISC001,1,VITAMIN C,PROPHYLAXIS OR NON-THERAPEUTIC USE,500,mg,,ORAL,SCREENING,1983,,,,,AFTER
CDISCPILOT01,CM,CDISC002,2,VITAMIN E,PROPHYLAXIS OR NON-THERAPEUTIC USE,400,mg,,ORAL,SCREENING,1983,,,,ONGOING,AFTER
CDISCPILOT01,CM,CDISC003,1,METAMUCIL,PROPHYLAXIS OR NON-THERAPEUTIC USE,3,mg,,ORAL,SCREENING,2009,,,,,
CDISCPILOT01,CM,CDISC004,2,ADVIL,PROPHYLAXIS OR NON-THERAPEUTIC USE,200,mg,,ORAL,SCREENING,2011,,,,ONGOING,AFTER
CDISCPILOT01,CM,CDISC005,3,DOCUSATE SODIUM,PROPHYLAXIS OR NON-THERAPEUTIC USE,100,mg,,ORAL,SCREENING,2012-11,2013-01-05,,1,,
CDISCPILOT01,CM,CDISC006,4,BENADRYL,PROPHYLAXIS OR NON-THERAPEUTIC USE,75,mg,,ORAL,SCREENING,2013-02-18,2013-05-10,45,126,,AFTER
CDISCPILOT01,CM,CDISC007,5,PREDNISONE,PROPHYLAXIS OR NON-THERAPEUTIC USE,20,mg,,ORAL,SCREENING,2013-02-18,2013-05-10,45,126,BEFORE,
CDISCPILOT01,CM,CDISC008,6,TEMOVATE,PROPHYLAXIS OR NON-THERAPEUTIC USE,1,TABLET,,TOPICAL,SCREENING,2014-05-13,2014-05-20,3,10,BEFORE,
CDISCPILOT01,CM,CDISC009,1,MOTRIN,PROPHYLAXIS OR NON-THERAPEUTIC USE,400,mg,,ORAL,SCREENING,1998-10,2013-06-05,,181,,
CDISCPILOT01,CM,CDISC010,2,PRINIVIL,PROPHYLAXIS OR NON-THERAPEUTIC USE,10,mg,,ORAL,SCREENING,2011-07-15,2013-06-05,-799,-108,,
